cond,session,trial,size,orLarge,phase,dur,orSmall,task,response,rt,subject
angle,1,1,8,180,0.4,6,1.5,comp,left,0.870270864883,1
angle,1,2,8,180,0.0,6,0.0,comp,right,1.8228349188,1
angle,1,3,8,0,0.8,6,-2.0,equ,n,2.49314549218,1
angle,1,4,8,0,0.4,6,-2.0,equ,n,1.24660743354,1
angle,1,5,8,0,0.8,6,1.0,equ,m,1.28189664061,1
angle,1,6,8,180,0.2,6,2.0,comp,left,0.882053864814,1
angle,1,7,8,180,0.2,6,1.0,comp,left,1.1995766215,1
angle,1,8,8,0,0.4,6,0.5,equ,m,1.24658366976,1
angle,1,9,8,270,0.8,6,-2.0,comp,down,1.65821979423,1
angle,1,10,8,180,0.4,6,1.5,equ,n,2.02279176072,1
angle,1,11,8,0,0.6,6,-0.5,comp,left,1.41119841105,1
angle,1,12,8,270,0.8,6,-2.0,equ,n,1.57587294506,1
angle,1,13,8,270,0.2,6,-1.5,equ,n,1.28186674424,1
angle,1,14,8,90,0.8,6,2.0,equ,n,1.37595634824,1
angle,1,15,8,0,0.6,6,-2.0,equ,n,1.44651713119,1
angle,1,16,8,90,0.8,6,-1.0,comp,up,1.22307056347,1
angle,1,17,8,180,0.6,6,1.5,comp,left,0.917287878596,1
angle,1,18,8,90,0.2,6,0.5,equ,m,1.19954710843,1
angle,1,19,8,180,0.4,6,2.0,comp,left,0.858483265511,1
angle,1,20,8,0,0.2,6,-1.5,comp,left,1.09369826827,1
angle,1,21,8,270,0.6,6,-0.5,comp,down,1.21130672787,1
angle,1,22,8,0,0.8,6,-1.0,comp,left,0.92905784678,1
angle,1,23,8,0,0.4,6,0.0,comp,right,1.76404065445,1
angle,1,24,8,270,0.2,6,0.5,equ,m,1.35242791048,1
angle,1,25,8,0,0.2,6,-0.5,equ,m,3.23407894096,1
angle,1,26,8,270,0.4,6,-1.5,comp,down,1.88170162433,1
angle,1,27,8,0,0.6,6,1.0,comp,right,1.36417104859,1
angle,1,28,8,180,0.8,6,1.0,equ,m,1.68169648829,1
angle,1,29,8,180,0.2,6,1.5,equ,m,1.41124210573,1
angle,1,30,8,180,0.0,6,0.0,equ,n,1.31714445271,1
angle,1,31,8,0,0.6,6,-1.0,equ,n,1.6582178778,1
angle,1,32,8,180,0.0,6,1.0,comp,left,0.92909157601,1
angle,1,33,8,90,0.2,6,-1.5,equ,n,1.79931874621,1
angle,1,34,8,270,0.4,6,1.0,comp,down,3.1399939364,1
angle,1,35,8,90,0.8,6,1.5,comp,down,1.093703251,1
angle,1,36,8,0,0.0,6,-1.0,equ,n,1.42301437363,1
angle,1,37,8,270,0.0,6,2.0,equ,n,1.505326727,1
angle,1,38,8,90,0.6,6,2.0,comp,down,0.999601765112,1
angle,1,39,8,0,0.4,6,-1.5,equ,n,1.34066024201,1
angle,1,40,8,270,0.4,6,-0.5,comp,down,1.3054154962,1
angle,1,41,8,270,0.4,6,-1.5,equ,n,1.42299904217,1
angle,1,42,8,90,0.4,6,-1.0,equ,m,1.1054697696,1
angle,1,43,8,270,0.6,6,2.0,equ,n,1.8463392095,1
angle,1,44,8,180,0.8,6,0.5,comp,left,1.08194784771,1
angle,1,45,8,180,0.6,6,-1.0,equ,m,1.22304143368,1
angle,1,46,8,270,0.0,6,2.0,comp,up,0.917276763282,1
angle,1,47,8,270,0.4,6,-1.0,equ,n,1.69347757179,1
angle,1,48,8,180,0.8,6,2.0,comp,left,0.846759675019,1
angle,1,49,8,180,0.0,6,1.5,equ,n,2.04628531939,1
angle,1,50,8,0,0.4,6,0.0,equ,m,1.11726580128,1
angle,1,51,8,270,0.0,6,-1.0,comp,down,0.952604682307,1
angle,1,52,8,0,0.8,6,0.5,equ,m,1.28187785956,1
angle,1,53,8,180,0.4,6,-1.5,equ,n,3.15175508899,1
angle,1,54,8,180,0.8,6,-1.5,equ,n,1.258372419,1
angle,1,55,8,0,0.4,6,0.5,comp,right,1.69346952277,1
angle,1,56,8,270,0.2,6,-2.0,equ,n,1.39944530748,1
angle,1,57,8,90,0.0,6,0.5,equ,m,1.18779170514,1
angle,1,58,8,90,0.0,6,1.5,comp,down,1.0584121275,1
angle,1,59,8,180,0.0,6,0.5,equ,m,1.24659018564,1
angle,1,60,8,90,0.4,6,1.0,comp,down,1.11723092219,1
angle,1,61,8,270,0.6,6,0.0,equ,m,1.32893856796,1
angle,1,62,8,270,0.2,6,1.5,comp,up,1.4464822521,1
angle,1,63,8,270,0.6,6,1.0,comp,up,1.01140891211,1
angle,1,64,8,90,0.6,6,1.0,comp,down,1.14072179786,1
angle,1,65,8,90,0.0,6,-2.0,comp,up,0.987884690494,1
angle,1,66,8,90,0.4,6,2.0,comp,down,0.893778221879,1
angle,1,67,8,270,0.4,6,-1.0,comp,down,0.905564671391,1
angle,1,68,8,270,0.4,6,1.5,equ,n,1.77578110956,1
angle,1,69,8,0,0.4,6,1.0,comp,right,1.21133317465,1
angle,1,70,8,90,0.4,6,2.0,equ,n,1.31715441817,1
angle,1,71,8,180,0.8,6,-1.5,comp,right,0.952574019371,1
angle,1,72,8,180,0.0,6,2.0,equ,n,1.42301897308,1
angle,1,73,8,0,0.0,6,-2.0,equ,n,1.32893511838,1
angle,1,74,8,270,0.2,6,0.0,equ,m,1.07018324554,1
angle,1,75,8,90,0.2,6,2.0,equ,n,2.03455099687,1
angle,1,76,8,180,0.6,6,-0.5,comp,right,1.07018017925,1
angle,1,77,8,180,0.0,6,1.0,equ,m,0.917296694191,1
angle,1,78,8,180,0.0,6,0.5,comp,left,1.55231384435,1
angle,1,79,8,90,0.4,6,1.5,equ,n,2.15214182528,1
angle,1,80,8,180,0.4,6,0.5,comp,left,1.39949015202,1
angle,1,81,8,90,0.6,6,1.5,comp,down,1.49355215938,1
angle,1,82,8,180,0.2,6,0.5,equ,m,1.23483746536,1
angle,1,83,8,0,0.6,6,-2.0,comp,left,0.987842528956,1
angle,1,84,8,90,0.8,6,-2.0,comp,up,1.17588911976,1
angle,1,85,8,90,0.8,6,-0.5,comp,up,1.2466143327,1
angle,1,86,8,0,0.6,6,0.5,equ,m,1.10544600583,1
angle,1,87,8,90,0.6,6,-0.5,comp,up,0.882032017472,1
angle,1,88,8,0,0.6,6,-1.0,comp,left,0.870257833135,1
angle,1,89,8,270,0.2,6,-0.5,comp,down,0.99964737623,1
angle,1,90,8,270,0.0,6,-0.5,equ,n,1.0819252338,1
angle,1,91,8,0,0.6,6,2.0,comp,right,0.999610963993,1
angle,1,92,8,270,0.0,6,-1.5,comp,down,0.85850434628,1
angle,1,93,8,90,0.8,6,-1.5,comp,up,1.11722248988,1
angle,1,94,8,270,0.2,6,-0.5,equ,n,1.75230249907,1
angle,1,95,8,270,0.0,6,-0.5,comp,down,1.55235562261,1
angle,1,96,8,270,0.8,6,1.5,equ,m,1.02312292043,1
angle,1,97,8,0,0.2,6,-1.0,comp,left,0.987865142872,1
angle,1,98,8,180,0.2,6,-0.5,comp,right,1.97569310693,1
angle,1,99,8,90,0.0,6,-1.5,equ,n,1.32893358523,1
angle,1,100,8,270,0.6,6,1.5,equ,m,0.999809506507,1
angle,1,101,8,180,0.6,6,-1.5,equ,n,2.25798184984,1
angle,1,102,8,0,0.0,6,0.5,comp,right,1.30533462271,1
angle,1,103,8,0,0.6,6,-0.5,equ,m,0.917328123701,1
angle,1,104,8,180,0.0,6,-2.0,comp,right,1.34067710663,1
angle,1,105,8,270,0.6,6,-1.5,equ,n,1.84635224125,1
angle,1,106,8,0,0.0,6,-1.0,comp,left,0.929275170342,1
angle,1,107,8,270,0.2,6,0.0,comp,up,2.46964158477,1
angle,1,108,8,90,0.2,6,-2.0,comp,up,0.882045432506,1
angle,1,109,8,270,0.6,6,-1.0,equ,n,1.69347488878,1
angle,1,110,8,0,0.0,6,-0.5,comp,left,0.929080843982,1
angle,1,111,8,90,0.2,6,1.0,equ,m,0.964365068323,1
angle,1,112,8,270,0.8,6,-1.0,comp,down,0.893799685935,1
angle,1,113,8,270,0.4,6,2.0,comp,up,0.893755224677,1
angle,1,114,8,180,0.0,6,-1.0,equ,m,0.834965559773,1
angle,1,115,8,0,0.2,6,0.5,comp,right,1.15251169695,1
angle,1,116,8,180,0.2,6,0.5,comp,left,1.37592645188,1
angle,1,117,8,90,0.6,6,0.5,comp,up,1.31700800264,1
angle,1,118,8,180,0.6,6,-0.5,equ,m,0.964316390911,1
angle,1,119,8,0,0.6,6,2.0,equ,n,1.34069857069,1
angle,1,120,8,180,0.8,6,1.0,comp,left,0.940793702446,1
angle,1,121,8,270,0.4,6,-0.5,equ,n,1.02314668421,1
angle,1,122,8,0,0.8,6,-0.5,comp,left,0.834983957535,1
angle,1,123,8,180,0.6,6,-1.0,comp,right,0.905474599015,1
angle,1,124,8,90,0.0,6,-0.5,comp,up,0.905534775028,1
angle,1,125,8,0,0.8,6,0.0,equ,m,0.929047498038,1
angle,1,126,8,0,0.0,6,-1.5,equ,n,1.09369711841,1
angle,1,127,8,180,0.2,6,-0.5,equ,n,4.70407966538,1
angle,1,128,8,0,0.4,6,2.0,comp,right,0.787924782284,1
angle,1,129,8,270,0.8,6,-1.5,comp,down,0.858482498937,1
angle,1,130,8,90,0.4,6,0.0,equ,n,1.08197736079,1
angle,1,131,8,270,0.6,6,1.5,comp,up,0.835004655017,1
angle,1,132,8,270,0.8,6,-0.5,equ,n,1.47005630098,1
angle,1,133,8,270,0.6,6,-2.0,comp,down,0.8937805216,1
angle,1,134,8,270,0.8,6,-1.5,equ,n,1.1760205871,1
angle,1,135,8,180,0.2,6,1.0,equ,m,1.45826946819,1
angle,1,136,8,0,0.4,6,2.0,equ,n,1.97576094868,1
angle,1,137,8,270,0.0,6,0.0,comp,down,0.929035999437,1
angle,1,138,8,270,0.4,6,0.5,equ,m,1.03487717386,1
angle,1,139,8,0,0.0,6,0.5,equ,m,1.04665250806,1
angle,1,140,8,0,0.2,6,1.5,equ,n,1.28192538711,1
angle,1,141,8,90,0.0,6,1.5,equ,n,1.35241411216,1
angle,1,142,8,90,0.6,6,-1.0,equ,n,0.952580918531,1
angle,1,143,8,90,0.0,6,0.0,comp,up,1.63467679157,1
angle,1,144,8,180,0.4,6,-1.5,comp,right,0.870242501666,1
angle,1,145,8,270,0.2,6,-1.5,comp,down,1.02316201567,1
angle,1,146,8,270,0.0,6,-2.0,equ,n,0.905550106496,1
angle,1,147,8,270,0.4,6,-2.0,equ,n,0.84674089397,1
angle,1,148,8,90,0.0,6,0.0,equ,m,0.976101690563,1
angle,1,149,8,180,0.2,6,-2.0,equ,n,0.976125071052,1
angle,1,150,8,0,0.2,6,-2.0,equ,n,1.49355752539,1
angle,1,151,8,0,0.8,6,1.5,comp,right,1.10547475233,1
angle,1,152,8,0,0.6,6,1.5,equ,m,0.870257066561,1
angle,1,153,8,180,0.6,6,1.5,equ,n,1.12884105982,1
angle,1,154,8,270,0.4,6,0.5,comp,up,1.25838238445,1
angle,1,155,8,90,0.6,6,-0.5,equ,m,1.08193481596,1
angle,1,156,8,90,0.4,6,0.0,comp,up,1.05843742442,1
angle,1,157,8,90,0.8,6,1.0,equ,m,0.893778221879,1
angle,1,158,8,0,0.6,6,-1.5,equ,n,3.70451162949,1
angle,1,159,8,180,0.6,6,1.0,comp,left,1.01140431267,1
angle,1,160,8,270,0.4,6,0.0,comp,down,1.58764482967,1
angle,1,161,8,0,0.6,6,0.0,equ,m,0.870270481596,1
angle,1,162,8,90,0.0,6,-2.0,equ,n,1.34066829104,1
angle,1,163,8,0,0.2,6,2.0,equ,n,1.07017251351,1
angle,1,164,8,90,0.4,6,-2.0,equ,n,1.12896869429,1
angle,1,165,8,270,0.4,6,2.0,equ,m,0.799653355503,1
angle,1,166,8,90,0.6,6,-2.0,equ,m,1.52883600043,1
angle,1,167,8,90,0.4,6,1.0,equ,m,0.952610048321,1
angle,1,168,8,180,0.2,6,-1.0,comp,right,0.835001205437,1
angle,1,169,8,180,0.0,6,-1.5,equ,n,1.10546172058,1
angle,1,170,8,0,0.2,6,0.5,equ,m,0.999596015811,1
angle,1,171,8,0,0.0,6,-0.5,equ,m,0.799697050187,1
angle,1,172,8,0,0.2,6,1.5,comp,right,1.27008451089,1
angle,1,173,8,270,0.2,6,2.0,equ,n,0.858492081105,1
angle,1,174,8,90,0.6,6,-1.5,equ,m,0.893802368942,1
angle,1,175,8,270,0.8,6,-1.0,equ,n,1.04664330917,1
angle,1,176,8,270,0.4,6,0.0,equ,m,1.01137863246,1
angle,1,177,8,0,0.0,6,1.0,equ,m,1.50531561169,1
angle,1,178,8,0,0.0,6,0.0,equ,m,0.799680185572,1
angle,1,179,8,180,0.0,6,2.0,comp,left,0.834980507954,1
angle,1,180,8,0,0.2,6,-2.0,comp,left,0.823189075716,1
angle,1,181,8,0,0.4,6,-0.5,equ,n,0.905538607895,1
angle,1,182,8,180,0.0,6,-0.5,equ,m,1.01139358064,1
angle,1,183,8,180,0.0,6,-1.5,comp,right,0.858506646,1
angle,1,184,8,90,0.8,6,0.5,comp,down,14.8414898661,1
angle,1,185,8,270,0.2,6,1.0,comp,up,1.30539173243,1
angle,1,186,8,90,0.2,6,-1.0,comp,up,0.77618049431,1
angle,1,187,8,0,0.0,6,-2.0,comp,left,0.799692834034,1
angle,1,188,8,0,0.0,6,1.0,comp,right,1.17602940269,1
angle,1,189,8,90,0.2,6,-2.0,equ,n,1.35240682971,1
angle,1,190,8,270,0.8,6,1.0,equ,m,1.14076817555,1
angle,1,191,8,180,0.8,6,-1.0,equ,m,0.870279680477,1
angle,1,192,8,90,0.8,6,-1.5,equ,n,0.940843913005,1
angle,1,193,8,90,0.2,6,-1.5,comp,up,0.89377937174,1
angle,1,194,8,90,0.2,6,-1.0,equ,n,1.05843627456,1
angle,1,195,8,270,0.2,6,1.5,equ,n,1.12900357338,1
angle,1,196,8,270,0.8,6,-0.5,comp,down,0.893796236355,1
angle,1,197,8,180,0.2,6,1.5,comp,left,1.02313710204,1
angle,1,198,8,0,0.2,6,1.0,equ,m,0.717398111853,1
angle,1,199,8,270,0.0,6,1.0,equ,m,0.893773622439,1
angle,1,200,8,180,0.2,6,-1.5,equ,n,0.882024351738,1
angle,1,201,8,270,0.0,6,-1.0,equ,n,0.999603298259,1
angle,1,202,8,180,0.4,6,-0.5,comp,left,1.10546746988,1
angle,1,203,8,270,0.6,6,2.0,comp,up,0.693891138143,1
angle,1,204,8,180,0.2,6,-1.0,equ,n,0.729142783114,1
angle,1,205,8,90,0.6,6,0.0,comp,up,0.929055163773,1
angle,1,206,8,0,0.6,6,1.0,equ,m,1.02311947085,1
angle,1,207,8,180,0.6,6,1.0,equ,m,0.893806968382,1
angle,1,208,8,90,0.4,6,-1.0,comp,up,0.882020902157,1
angle,1,209,8,270,0.8,6,0.0,equ,m,0.752663171858,1
angle,1,210,8,270,0.0,6,0.5,equ,m,0.799720430676,1
angle,1,211,8,180,0.8,6,-1.0,comp,right,2.22269685893,1
angle,1,212,8,90,0.0,6,1.0,comp,down,2.38733268098,1
angle,1,213,8,0,0.0,6,2.0,comp,right,1.04667933813,1
angle,1,214,8,180,0.6,6,-2.0,equ,n,1.15251131367,1
angle,1,215,8,180,0.8,6,0.0,equ,m,0.670360400657,1
angle,1,216,8,90,0.0,6,2.0,comp,up,1.32895083313,1
angle,1,217,8,90,0.2,6,-0.5,comp,up,2.30505482341,1
angle,1,218,8,180,0.6,6,0.0,comp,right,0.917342305308,1
angle,1,219,8,90,0.4,6,-0.5,comp,up,1.09367987051,1
angle,1,220,8,180,0.4,6,-0.5,equ,m,0.705595181013,1
angle,1,221,8,270,0.4,6,1.0,equ,m,0.776146765079,1
angle,1,222,8,180,0.4,6,0.0,comp,left,1.04663564344,1
angle,1,223,8,180,0.0,6,-1.0,comp,right,0.905538991182,1
angle,1,224,8,270,0.8,6,2.0,equ,n,1.08194631456,1
angle,1,225,8,180,0.6,6,2.0,equ,n,1.07021467505,1
angle,1,226,8,180,0.8,6,-2.0,equ,n,0.964341687834,1
angle,1,227,8,90,0.0,6,-0.5,equ,m,1.56408112953,1
angle,1,228,8,180,0.6,6,2.0,comp,left,0.764571506543,1
angle,1,229,8,90,0.2,6,0.0,comp,up,1.04666055708,1
angle,1,230,8,180,0.6,6,-1.5,comp,right,0.799675202845,1
angle,1,231,8,180,0.6,6,0.5,equ,n,3.35171001448,1
angle,1,232,8,180,0.6,6,0.5,comp,left,1.95222024574,1
angle,1,233,8,90,0.8,6,-0.5,equ,n,0.929076244542,1
angle,1,234,8,0,0.8,6,2.0,comp,right,0.740890137381,1
angle,1,235,8,180,0.8,6,1.5,comp,left,0.799703566061,1
angle,1,236,8,0,0.8,6,-1.5,equ,n,0.94079561888,1
angle,1,237,8,0,0.8,6,1.5,equ,n,1.24660590039,1
angle,1,238,8,90,0.0,6,2.0,equ,n,0.893773239152,1
angle,1,239,8,0,0.2,6,2.0,comp,right,0.823240052847,1
angle,1,240,8,90,0.2,6,0.0,equ,m,0.81152067851,1
angle,1,241,8,180,0.2,6,0.0,equ,m,0.71740424444,1
angle,1,242,8,180,0.6,6,0.0,equ,m,0.834973608794,1
angle,1,243,8,270,0.6,6,0.5,comp,up,0.987891589655,1
angle,1,244,8,270,0.6,6,-1.0,comp,down,1.66996101591,1
angle,1,245,8,90,0.8,6,0.0,equ,m,0.834995839423,1
angle,1,246,8,180,0.8,6,2.0,equ,n,0.858524277189,1
angle,1,247,8,270,0.6,6,-1.5,comp,down,0.858519677748,1
angle,1,248,8,0,0.4,6,1.5,comp,right,0.646817397997,1
angle,1,249,8,270,0.8,6,0.0,comp,down,0.952561370909,1
angle,1,250,8,270,0.2,6,2.0,comp,up,0.693835178284,1
angle,1,251,8,0,0.8,6,1.0,comp,right,0.799677885852,1
angle,1,252,8,90,0.0,6,-1.5,comp,up,1.01138821462,1
angle,1,253,8,270,0.0,6,1.0,comp,up,0.787959278087,1
angle,1,254,8,90,0.6,6,0.0,equ,m,1.97569272365,1
angle,1,255,8,0,0.4,6,-1.0,equ,m,0.68206291038,1
angle,1,256,8,0,0.8,6,-2.0,comp,left,0.905506028525,1
angle,1,257,8,90,0.6,6,1.5,equ,n,1.85809806237,1
angle,1,258,8,0,0.4,6,-1.5,comp,left,0.823186775995,1
angle,1,259,8,270,0.2,6,-2.0,comp,down,0.846753925718,1
angle,1,260,8,90,0.4,6,1.5,comp,down,1.16426978325,1
angle,1,261,8,270,0.2,6,0.5,comp,up,1.31715480145,1
angle,1,262,8,270,0.0,6,0.5,comp,up,1.35241909488,1
angle,1,263,8,90,0.4,6,-0.5,equ,m,1.56409876072,1
angle,1,264,8,90,0.8,6,0.0,comp,up,1.05844738988,1
angle,1,265,8,0,0.4,6,1.0,equ,n,1.02314860064,1
angle,1,266,8,180,0.8,6,1.5,equ,n,1.01137709931,1
angle,1,267,8,0,0.8,6,-0.5,equ,m,0.670340469748,1
angle,1,268,8,0,0.2,6,0.0,equ,m,0.635038230932,1
angle,1,269,8,0,0.0,6,2.0,equ,m,1.68171258633,1
angle,1,270,8,0,0.4,6,1.5,equ,n,1.10547398576,1
angle,1,271,8,90,0.6,6,1.0,equ,n,1.27013855431,1
angle,1,272,8,90,0.0,6,1.0,equ,m,0.670361167231,1
angle,1,273,8,270,0.2,6,-1.0,equ,m,1.47004326924,1
angle,1,274,8,0,0.4,6,-0.5,comp,left,0.740921566892,1
angle,1,275,8,180,0.8,6,-0.5,comp,right,0.823224338093,1
angle,1,276,8,270,0.6,6,0.0,comp,up,1.0583918133,1
angle,1,277,8,90,0.2,6,0.5,comp,down,1.08196432904,1
angle,1,278,8,90,0.2,6,1.5,equ,m,0.682099705904,1
angle,1,279,8,90,0.8,6,1.5,equ,m,0.976085592521,1
angle,1,280,8,270,0.6,6,-2.0,equ,n,1.09370171785,1
angle,1,281,8,180,0.0,6,-2.0,equ,n,0.811478133685,1
angle,1,282,8,270,0.4,6,1.5,comp,up,0.952578235524,1
angle,1,283,8,0,0.0,6,1.5,equ,m,0.764413209133,1
angle,1,284,8,90,0.8,6,2.0,comp,down,0.823189459002,1
angle,1,285,8,270,0.6,6,0.5,equ,m,0.893895124325,1
angle,1,286,8,90,0.6,6,-2.0,comp,up,0.729142399827,1
angle,1,287,8,90,0.0,6,-1.0,equ,n,1.07019052799,1
angle,1,288,8,180,0.4,6,-1.0,equ,n,0.834940646137,1
angle,1,289,8,180,0.6,6,-2.0,comp,right,1.04656665183,1
angle,1,290,8,180,0.4,6,0.0,equ,m,0.682065210101,1
angle,1,291,8,180,0.2,6,2.0,equ,n,1.21131056074,1
angle,1,292,8,0,0.6,6,0.5,comp,right,0.964361618742,1
angle,1,293,8,180,0.8,6,0.0,comp,left,1.04665097491,1
angle,1,294,8,90,0.6,6,0.5,equ,m,1.05843665785,1
angle,1,295,8,180,0.8,6,0.5,equ,m,0.646806665969,1
angle,1,296,8,0,0.0,6,0.0,comp,left,0.893795853068,1
angle,1,297,8,0,0.2,6,-1.0,equ,n,1.4700586007,1
angle,1,298,8,180,0.4,6,0.5,equ,m,1.48178142462,1
angle,1,299,8,270,0.0,6,1.5,equ,m,1.68175934731,1
angle,1,300,8,180,0.8,6,-2.0,comp,right,0.717385463392,1
angle,1,301,8,180,0.0,6,1.5,comp,left,0.705617411642,1
angle,1,302,8,0,0.4,6,-1.0,comp,left,0.811467018371,1
angle,1,303,8,0,0.4,6,-2.0,comp,left,0.682092423457,1
angle,1,304,8,270,0.2,6,-1.0,comp,down,0.929045581605,1
angle,1,305,8,0,0.8,6,2.0,equ,n,1.07021505834,1
angle,1,306,8,90,0.0,6,0.5,comp,up,1.19949843102,1
angle,1,307,8,90,0.4,6,-1.5,equ,n,0.882049265374,1
angle,1,308,8,90,0.6,6,-1.5,comp,up,1.39950203391,1
angle,1,309,8,180,0.4,6,1.0,equ,m,0.987857860425,1
angle,1,310,8,90,0.6,6,2.0,equ,m,1.19955132458,1
angle,1,311,8,270,0.6,6,1.0,equ,n,1.68173635011,1
angle,1,312,8,270,0.8,6,0.5,equ,m,0.917264498107,1
angle,1,313,8,180,0.4,6,-2.0,comp,right,1.85812872531,1
angle,1,314,8,90,0.2,6,-0.5,equ,m,0.893988262995,1
angle,1,315,8,90,0.4,6,0.5,equ,m,0.870257833134,1
angle,1,316,8,0,0.8,6,-1.5,comp,left,0.870257066561,1
angle,1,317,8,270,0.0,6,-1.5,equ,n,0.976133886646,1
angle,1,318,8,180,0.4,6,1.0,comp,left,0.870238668799,1
angle,1,319,8,180,0.0,6,-0.5,comp,right,1.19952257808,1
angle,1,320,8,0,0.0,6,-1.5,comp,left,0.999623612454,1
angle,1,321,8,90,0.8,6,0.5,equ,m,1.12897636003,1
angle,1,322,8,90,0.4,6,-1.5,comp,up,0.834981657815,1
angle,1,323,8,90,0.4,6,-2.0,comp,up,0.717414593182,1
angle,1,324,8,90,0.2,6,1.5,comp,down,0.799730396131,1
angle,1,325,8,270,0.8,6,1.5,comp,up,0.74090891843,1
angle,1,326,8,90,0.2,6,2.0,comp,down,0.846710231034,1
angle,1,327,8,0,0.8,6,-1.0,equ,m,0.964317540771,1
angle,1,328,8,180,0.4,6,2.0,equ,n,1.76402953914,1
angle,1,329,8,0,0.6,6,-1.5,comp,left,0.740870973046,1
angle,1,330,8,180,0.4,6,-1.0,comp,right,0.764420108294,1
angle,1,331,8,0,0.6,6,1.5,comp,right,0.776167462561,1
angle,1,332,8,180,0.2,6,0.0,comp,right,0.964348203708,1
angle,1,333,8,0,0.2,6,-1.5,equ,n,1.79921564208,1
angle,1,334,8,90,0.8,6,1.0,comp,down,3.2222940246,1
angle,1,335,8,90,0.8,6,-1.0,equ,n,0.91725721566,1
angle,1,336,8,270,0.6,6,-0.5,equ,n,0.752662788572,1
angle,1,337,8,90,0.4,6,0.5,comp,up,1.05846655421,1
angle,1,338,8,0,0.8,6,0.5,comp,right,0.893818466983,1
angle,1,339,8,0,0.2,6,0.0,comp,left,1.8111316425,1
angle,1,340,8,270,0.8,6,1.0,comp,up,1.19955132458,1
angle,1,341,8,270,0.0,6,1.5,comp,up,0.846760058306,1
angle,1,342,8,180,0.8,6,-0.5,equ,m,1.36418484691,1
angle,1,343,8,90,0.8,6,-2.0,equ,n,0.834980891241,1
angle,1,344,8,90,0.0,6,-1.0,comp,up,0.999646609657,1
angle,1,345,8,180,0.4,6,-2.0,equ,n,1.41125360433,1
angle,1,346,8,270,0.4,6,-2.0,comp,down,1.19952411123,1
angle,1,347,8,180,0.2,6,-1.5,comp,right,0.799684785013,1
angle,1,348,8,90,0.6,6,-1.0,comp,up,0.858502046559,1
angle,1,349,8,270,0.0,6,0.0,equ,m,1.72879207578,1
angle,1,350,8,0,0.6,6,0.0,comp,right,1.0466571075,1
angle,1,351,8,0,0.0,6,1.5,comp,right,0.658573567859,1
angle,1,352,8,0,0.2,6,1.0,comp,right,0.682100472477,1
angle,1,353,8,0,0.8,6,0.0,comp,right,1.71699911039,1
angle,1,354,8,180,0.2,6,-2.0,comp,right,0.729126301785,1
angle,1,355,8,270,0.8,6,2.0,comp,up,0.752736379619,1
angle,1,356,8,90,0.2,6,1.0,comp,down,1.3406778732,1
angle,1,357,8,0,0.2,6,-0.5,comp,right,0.552735459731,1
angle,1,358,8,270,0.8,6,0.5,comp,up,1.08196471233,1
angle,1,359,8,270,0.2,6,1.0,equ,m,0.79972464683,1
angle,1,360,8,270,0.0,6,-2.0,comp,down,2.84597662028,1
angle,2,1,8,180,0.8,6,-0.5,comp,right,0.905526726007,1
angle,2,2,8,180,0.6,6,-1.0,comp,right,0.85847981593,1
angle,2,3,8,180,0.0,6,2.0,comp,left,0.893796619641,1
angle,2,4,8,270,0.8,6,-2.0,comp,up,0.882038150059,1
angle,2,5,8,90,0.6,6,0.0,comp,up,1.01139971322,1
angle,2,6,8,180,0.8,6,0.0,comp,right,1.64639501605,1
angle,2,7,8,0,0.8,6,0.5,equ,n,1.30538215026,1
angle,2,8,8,180,0.6,6,1.5,equ,n,0.729191460525,1
angle,2,9,8,0,0.4,6,-1.5,equ,n,0.917272930415,1
angle,2,10,8,0,0.8,6,-1.5,equ,n,1.21132857521,1
angle,2,11,8,180,0.8,6,-2.0,comp,right,0.787972309835,1
angle,2,12,8,90,0.8,6,-1.0,comp,up,0.764425857595,1
angle,2,13,8,90,0.0,6,2.0,comp,down,0.811449003895,1
angle,2,14,8,180,0.6,6,0.5,equ,n,0.905531325448,1
angle,2,15,8,180,0.8,6,0.5,equ,m,0.55269483134,1
angle,2,16,8,90,0.0,6,0.0,comp,up,1.01143574218,1
angle,2,17,8,90,0.6,6,0.5,equ,m,0.870273547889,1
angle,2,18,8,90,0.0,6,2.0,equ,n,0.91732122454,1
angle,2,19,8,270,0.0,6,0.0,equ,m,1.02314898393,1
angle,2,20,8,180,0.8,6,-1.5,equ,n,0.964409912867,1
angle,2,21,8,180,0.8,6,0.5,comp,left,1.43477131007,1
angle,2,22,8,0,0.6,6,-1.5,comp,left,0.823195591589,1
angle,2,23,8,270,0.4,6,0.5,comp,down,1.08193596582,1
angle,2,24,8,0,0.8,6,0.5,comp,right,0.940819382655,1
angle,2,25,8,0,0.8,6,1.0,comp,right,0.623302375266,1
angle,2,26,8,0,0.6,6,-1.0,comp,left,0.7761605634,1
angle,2,27,8,270,0.6,6,0.0,comp,down,1.03495306463,1
angle,2,28,8,90,0.2,6,-0.5,comp,up,0.870232536212,1
angle,2,29,8,0,0.0,6,0.5,equ,m,0.905553556077,1
angle,2,30,8,180,0.8,6,0.0,equ,n,1.15251936269,1
angle,2,31,8,180,0.8,6,-1.5,comp,right,0.799671369978,1
angle,2,32,8,90,0.8,6,-0.5,comp,up,0.682112354365,1
angle,2,33,8,270,0.6,6,2.0,equ,n,1.18778825556,1
angle,2,34,8,90,0.4,6,2.0,equ,n,0.858512778587,1
angle,2,35,8,180,0.2,6,-0.5,equ,m,0.940840080138,1
angle,2,36,8,0,0.8,6,1.5,comp,right,0.846748559704,1
angle,2,37,8,270,0.2,6,2.0,equ,n,1.17600525563,1
angle,2,38,8,90,0.8,6,-2.0,comp,up,0.658566668698,1
angle,2,39,8,0,0.6,6,0.5,comp,right,0.776168229135,1
angle,2,40,8,270,0.2,6,-1.5,equ,n,2.01098423044,1
angle,2,41,8,90,0.0,6,-2.0,equ,n,1.1172221066,1
angle,2,42,8,90,0.2,6,0.5,equ,m,0.705614345348,1
angle,2,43,8,90,0.2,6,1.0,comp,down,0.893769789572,1
angle,2,44,8,270,0.2,6,-2.0,equ,n,0.929042132024,1
angle,2,45,8,0,0.2,6,0.5,equ,m,1.09372854792,1
angle,2,46,8,180,0.0,6,-1.0,equ,n,1.10546248716,1
angle,2,47,8,180,0.2,6,-1.5,equ,n,0.964445175244,1
angle,2,48,8,0,0.6,6,2.0,comp,right,0.717400028287,1
angle,2,49,8,270,0.4,6,0.0,comp,up,1.28184757991,1
angle,2,50,8,270,0.4,6,-0.5,equ,m,1.14071566527,1
angle,2,51,8,180,0.0,6,0.5,comp,left,0.811453986622,1
angle,2,52,8,0,0.0,6,0.0,comp,left,2.18738695438,1
angle,2,53,8,270,0.0,6,-0.5,equ,n,1.07017941267,1
angle,2,54,8,90,0.4,6,0.0,comp,down,1.98750140379,1
angle,2,55,8,0,0.0,6,1.0,comp,right,0.882023201877,1
angle,2,56,8,180,0.2,6,-1.5,comp,right,0.752688468781,1
angle,2,57,8,90,0.8,6,-2.0,equ,n,1.17604895031,1
angle,2,58,8,90,0.0,6,-1.5,equ,n,0.834966326347,1
angle,2,59,8,90,0.8,6,0.0,comp,up,1.1172451038,1
angle,2,60,8,180,0.0,6,-0.5,comp,right,1.03490515379,1
angle,2,61,8,0,0.2,6,-1.0,comp,left,0.776163629695,1
angle,2,62,8,270,0.8,6,2.0,comp,up,0.84677577306,1
angle,2,63,8,180,0.4,6,-0.5,comp,right,0.940819382655,1
angle,2,64,8,180,0.2,6,2.0,equ,n,1.48158211554,1
angle,2,65,8,180,0.4,6,-2.0,comp,right,0.823239669561,1
angle,2,66,8,90,0.2,6,0.5,comp,up,1.2935972339,1
angle,2,67,8,270,0.4,6,1.0,equ,n,1.68174478241,1
angle,2,68,8,270,0.8,6,2.0,equ,n,0.893769789572,1
angle,2,69,8,0,0.6,6,-0.5,comp,left,1.08203408722,1
angle,2,70,8,270,0.6,6,-2.0,equ,n,0.999610197419,1
angle,2,71,8,180,0.2,6,1.5,equ,n,0.776202724938,1
angle,2,72,8,0,0.6,6,-0.5,equ,n,1.04665902393,1
angle,2,73,8,0,0.4,6,-1.5,comp,left,0.717385080105,1
angle,2,74,8,90,0.8,6,1.0,comp,down,1.22308934451,1
angle,2,75,8,90,0.0,6,-0.5,equ,n,1.04666247351,1
angle,2,76,8,0,0.6,6,-2.0,equ,n,0.752656272698,1
angle,2,77,8,0,0.6,6,1.0,comp,right,0.929089659576,1
angle,2,78,8,90,0.0,6,1.0,equ,m,0.976103606996,1
angle,2,79,8,270,0.6,6,1.5,comp,up,0.917310109225,1
angle,2,80,8,270,0.6,6,0.0,equ,m,0.740866756892,1
angle,2,81,8,270,0.2,6,0.0,equ,m,0.776138716059,1
angle,2,82,8,270,0.6,6,1.5,equ,n,0.729162714023,1
angle,2,83,8,90,0.6,6,2.0,comp,down,0.846755458865,1
angle,2,84,8,270,0.0,6,2.0,comp,up,0.57625776491,1
angle,2,85,8,90,0.0,6,-2.0,comp,up,0.752660872138,1
angle,2,86,8,180,0.8,6,1.0,equ,n,0.776306212349,1
angle,2,87,8,180,0.2,6,-2.0,equ,n,0.846724795929,1
angle,2,88,8,180,0.6,6,1.5,comp,left,0.705603230034,1
angle,2,89,8,0,0.6,6,1.0,equ,m,0.952591267273,1
angle,2,90,8,90,0.2,6,-1.5,equ,n,0.940826665103,1
angle,2,91,8,180,0.8,6,-2.0,equ,n,0.92909042615,1
angle,2,92,8,0,0.4,6,1.5,comp,right,0.799718514243,1
angle,2,93,8,90,0.2,6,1.5,comp,down,0.752633658782,1
angle,2,94,8,0,0.0,6,1.0,equ,m,0.976092491682,1
angle,2,95,8,270,0.2,6,-0.5,equ,n,1.34065410943,1
angle,2,96,8,180,0.0,6,1.5,equ,n,2.97537152939,1
angle,2,97,8,90,0.2,6,1.0,equ,m,1.02316393211,1
angle,2,98,8,0,0.2,6,-1.5,equ,m,0.658572801285,1
angle,2,99,8,90,0.8,6,1.5,comp,down,0.988029189582,1
angle,2,100,8,270,0.4,6,-1.0,equ,n,1.1407697087,1
angle,2,101,8,90,0.0,6,-1.0,equ,m,0.952577085664,1
angle,2,102,8,270,0.8,6,-0.5,comp,down,0.964350886715,1
angle,2,103,8,0,0.8,6,-2.0,equ,n,0.917312025659,1
angle,2,104,8,180,0.6,6,-1.0,equ,m,1.19953369339,1
angle,2,105,8,90,0.6,6,0.0,equ,m,0.811477750398,1
angle,2,106,8,270,0.6,6,1.0,comp,up,0.799676352705,1
angle,2,107,8,270,0.8,6,1.0,equ,m,0.752765126122,1
angle,2,108,8,270,0.8,6,1.5,comp,up,0.729163863883,1
angle,2,109,8,180,0.0,6,-1.5,comp,right,0.870222954044,1
angle,2,110,8,90,0.6,6,1.0,comp,up,6.04478360207,1
angle,2,111,8,270,0.0,6,-2.0,comp,down,0.858510478867,1
angle,2,112,8,0,0.8,6,-1.0,equ,m,1.03488062344,1
angle,2,113,8,180,0.0,6,-1.0,comp,right,0.811481583266,1
angle,2,114,8,0,0.8,6,1.5,equ,m,1.03488330645,1
angle,2,115,8,90,0.0,6,-1.5,comp,up,0.811469318091,1
angle,2,116,8,180,0.6,6,2.0,equ,n,1.02314706749,1
angle,2,117,8,180,0.4,6,2.0,equ,n,0.776195825778,1
angle,2,118,8,0,0.6,6,1.5,equ,n,1.07016829736,1
angle,2,119,8,180,0.4,6,-1.0,equ,m,1.11723667149,1
angle,2,120,8,180,0.2,6,1.0,equ,m,0.917217737129,1
angle,2,121,8,0,0.6,6,0.5,equ,m,0.91732927356,1
angle,2,122,8,270,0.4,6,-1.5,comp,down,1.04667703841,1
angle,2,123,8,90,0.2,6,0.0,equ,m,2.916561167,1
angle,2,124,8,180,0.6,6,-2.0,equ,n,2.37559950832,1
angle,2,125,8,90,0.6,6,2.0,equ,m,1.023123687,1
angle,2,126,8,90,0.6,6,-1.5,equ,n,2.19911054487,1
angle,2,127,8,90,0.4,6,2.0,comp,down,0.882042749499,1
angle,2,128,8,180,0.4,6,2.0,comp,left,0.846726712362,1
angle,2,129,8,90,0.4,6,-2.0,comp,up,0.764445788503,1
angle,2,130,8,270,0.4,6,2.0,comp,up,0.787964644101,1
angle,2,131,8,180,0.4,6,0.0,comp,left,2.24621034851,1
angle,2,132,8,0,0.2,6,0.0,comp,left,1.25833102403,1
angle,2,133,8,180,0.6,6,0.0,equ,m,0.929078160975,1
angle,2,134,8,180,0.6,6,0.5,comp,left,1.4935314619,1
angle,2,135,8,270,0.0,6,-0.5,comp,down,1.07019206114,1
angle,2,136,8,270,0.8,6,-1.5,equ,n,0.882040449779,1
angle,2,137,8,0,0.2,6,-2.0,comp,left,0.858526960195,1
angle,2,138,8,180,0.8,6,1.0,comp,left,1.99923457645,1
angle,2,139,8,180,0.4,6,1.5,comp,left,0.717391979266,1
angle,2,140,8,90,0.6,6,0.5,comp,down,1.12898057618,1
angle,2,141,8,180,0.2,6,0.0,equ,m,0.787929765011,1
angle,2,142,8,0,0.4,6,0.0,comp,left,1.29362866341,1
angle,2,143,8,180,0.2,6,-1.0,equ,m,1.31712490509,1
angle,2,144,8,270,0.2,6,0.5,comp,down,2.35202239314,1
angle,2,145,8,0,0.8,6,-1.0,comp,left,0.752672370739,1
angle,2,146,8,270,0.0,6,0.5,equ,m,0.905537841322,1
angle,2,147,8,270,0.0,6,-1.5,comp,down,1.02314630092,1
angle,2,148,8,90,0.6,6,-2.0,equ,n,1.43475674518,1
angle,2,149,8,270,0.2,6,1.5,equ,m,0.964330955806,1
angle,2,150,8,0,0.2,6,0.5,comp,right,1.01138821462,1
angle,2,151,8,0,0.0,6,1.5,comp,right,0.882000971249,1
angle,2,152,8,90,0.2,6,2.0,comp,down,0.870270098309,1
angle,2,153,8,0,0.2,6,-0.5,comp,left,0.834972458933,1
angle,2,154,8,0,0.2,6,-1.0,equ,n,1.49356787413,1
angle,2,155,8,180,0.4,6,-1.5,equ,n,0.811463952077,1
angle,2,156,8,0,0.4,6,-1.0,comp,left,0.834979741381,1
angle,2,157,8,90,0.8,6,-0.5,equ,m,0.917276763282,1
angle,2,158,8,270,0.0,6,-1.0,equ,n,1.0701613982,1
angle,2,159,8,270,0.6,6,-1.0,equ,n,0.705584065698,1
angle,2,160,8,0,0.0,6,2.0,comp,right,0.729129751366,1
angle,2,161,8,270,0.2,6,-1.0,equ,n,1.0231440012,1
angle,2,162,8,90,0.4,6,1.5,equ,m,0.929051714193,1
angle,2,163,8,0,0.0,6,0.0,equ,n,1.64643526115,1
angle,2,164,8,270,0.8,6,0.0,equ,n,0.97603806497,1
angle,2,165,8,180,0.8,6,2.0,comp,left,0.658570118278,1
angle,2,166,8,90,0.8,6,2.0,comp,down,0.952575552517,1
angle,2,167,8,0,0.6,6,-1.0,equ,m,1.37598317831,1
angle,2,168,8,180,0.8,6,-1.0,comp,right,0.858469850476,1
angle,2,169,8,270,0.6,6,0.5,comp,up,0.799688234593,1
angle,2,170,8,90,0.2,6,-2.0,comp,up,0.846709081174,1
angle,2,171,8,180,0.2,6,0.0,comp,right,1.57587256177,1
angle,2,172,8,0,0.0,6,2.0,equ,n,1.02313786861,1
angle,2,173,8,0,0.4,6,-2.0,comp,left,0.776175128296,1
angle,2,174,8,90,0.0,6,1.5,equ,n,0.929058613353,1
angle,2,175,8,270,0.2,6,1.0,comp,up,0.940806734194,1
angle,2,176,8,0,0.4,6,0.5,equ,m,0.705602080174,1
angle,2,177,8,270,0.2,6,-1.0,comp,down,0.834982807675,1
angle,2,178,8,270,0.8,6,1.5,equ,m,0.776208474239,1
angle,2,179,8,0,0.2,6,2.0,equ,n,1.17604971689,1
angle,2,180,8,180,0.8,6,-0.5,equ,m,1.14074402849,1
angle,2,181,8,270,0.4,6,-1.5,equ,n,0.870288112784,1
angle,2,182,8,0,0.2,6,2.0,comp,right,0.776193526057,1
angle,2,183,8,0,0.8,6,0.0,comp,right,0.976077926787,1
angle,2,184,8,180,0.4,6,1.0,equ,m,1.03493888302,1
angle,2,185,8,90,0.6,6,-2.0,comp,up,0.623263663309,1
angle,2,186,8,180,0.6,6,1.0,equ,n,0.823222804946,1
angle,2,187,8,90,0.6,6,-1.0,equ,n,0.823219355365,1
angle,2,188,8,0,0.0,6,0.5,comp,right,0.740884388081,1
angle,2,189,8,270,0.6,6,1.0,equ,m,0.917271780555,1
angle,2,190,8,0,0.0,6,1.5,equ,n,1.02316009924,1
angle,2,191,8,90,0.2,6,-1.5,comp,up,0.705597097447,1
angle,2,192,8,180,0.2,6,0.5,equ,m,0.705616261781,1
angle,2,193,8,180,0.4,6,-1.5,comp,right,0.834979358094,1
angle,2,194,8,180,0.4,6,0.0,equ,n,4.55123297584,1
angle,2,195,8,0,0.0,6,-1.5,equ,n,0.952550638881,1
angle,2,196,8,270,0.0,6,-1.0,comp,down,0.952557921329,1
angle,2,197,8,180,0.6,6,2.0,comp,left,0.776197358924,1
angle,2,198,8,180,0.0,6,-2.0,comp,right,0.79972809641,1
angle,2,199,8,180,0.2,6,1.5,comp,left,0.646832346179,1
angle,2,200,8,180,0.2,6,-0.5,comp,right,0.823234686834,1
angle,2,201,8,270,0.0,6,1.0,comp,up,0.705647308005,1
angle,2,202,8,90,0.8,6,2.0,equ,m,0.82326764949,1
angle,2,203,8,0,0.4,6,-1.0,equ,n,0.882011319989,1
angle,2,204,8,180,0.2,6,-1.0,comp,right,1.37594868251,1
angle,2,205,8,90,0.0,6,0.0,equ,m,1.09369673513,1
angle,2,206,8,0,0.8,6,-2.0,comp,left,0.764431606895,1
angle,2,207,8,0,0.0,6,-1.0,equ,n,1.27009294319,1
angle,2,208,8,180,0.6,6,1.0,comp,left,0.729143166401,1
angle,2,209,8,90,0.6,6,-1.5,comp,up,0.764414358993,1
angle,2,210,8,90,0.4,6,-1.5,comp,up,0.740875572486,1
angle,2,211,8,270,0.8,6,-1.0,equ,n,0.846751625998,1
angle,2,212,8,0,0.4,6,-2.0,equ,n,0.752640941229,1
angle,2,213,8,90,0.4,6,0.5,equ,m,0.893765956705,1
angle,2,214,8,270,0.4,6,1.5,equ,n,1.05842707568,1
angle,2,215,8,90,0.2,6,-2.0,equ,n,0.882045815793,1
angle,2,216,8,90,0.6,6,-0.5,equ,m,0.905512544399,1
angle,2,217,8,270,0.4,6,-2.0,comp,down,0.787935514311,1
angle,2,218,8,180,0.0,6,1.0,equ,m,0.729148915701,1
angle,2,219,8,270,0.6,6,-2.0,comp,down,0.787937430745,1
angle,2,220,8,180,0.8,6,2.0,equ,n,0.823209006624,1
angle,2,221,8,90,0.0,6,-0.5,comp,up,0.82322817096,1
angle,2,222,8,270,0.2,6,-1.5,comp,down,0.882019752297,1
angle,2,223,8,0,0.2,6,1.0,comp,right,0.764384079343,1
angle,2,224,8,90,0.0,6,-1.0,comp,up,0.905754781597,1
angle,2,225,8,0,0.8,6,2.0,comp,right,0.811432522567,1
angle,2,226,8,0,0.2,6,1.5,comp,right,0.635048196387,1
angle,2,227,8,0,0.6,6,0.0,comp,right,1.15251208024,1
angle,2,228,8,270,0.6,6,-1.0,comp,down,0.729132051086,1
angle,2,229,8,180,0.4,6,0.5,equ,m,0.752661638712,1
angle,2,230,8,270,0.2,6,1.0,equ,n,1.03489940449,1
angle,2,231,8,270,0.0,6,-2.0,equ,n,0.870283896631,1
angle,2,232,8,0,0.4,6,-0.5,equ,m,0.776142165639,1
angle,2,233,8,180,0.6,6,-0.5,comp,right,0.858475599777,1
angle,2,234,8,270,0.0,6,-1.5,equ,n,0.776182410743,1
angle,2,235,8,270,0.8,6,0.5,comp,up,0.835003505157,1
angle,2,236,8,0,0.6,6,0.0,equ,m,0.799677119278,1
angle,2,237,8,0,0.2,6,1.0,equ,m,0.905522509853,1
angle,2,238,8,270,0.2,6,2.0,comp,up,0.729160031015,1
angle,2,239,8,90,0.4,6,-0.5,comp,up,0.811452070189,1
angle,2,240,8,180,0.4,6,-2.0,equ,n,2.0227863947,1
angle,2,241,8,270,0.6,6,2.0,comp,up,0.72910598759,1
angle,2,242,8,270,0.4,6,-2.0,equ,n,0.835005038304,1
angle,2,243,8,90,0.4,6,-1.0,comp,up,0.623298159112,1
angle,2,244,8,90,0.8,6,0.5,equ,m,0.834952144738,1
angle,2,245,8,180,0.2,6,0.5,comp,left,1.02313901847,1
angle,2,246,8,270,0.2,6,0.5,equ,m,0.964374267204,1
angle,2,247,8,180,0.2,6,1.0,comp,left,1.01139319735,1
angle,2,248,8,0,0.8,6,2.0,equ,n,0.870250167401,1
angle,2,249,8,180,0.0,6,1.0,comp,left,1.05839641274,1
angle,2,250,8,0,0.4,6,1.5,equ,n,1.04667358882,1
angle,2,251,8,90,0.4,6,1.0,comp,down,1.97573066903,1
angle,2,252,8,90,0.6,6,1.5,comp,down,0.776143315499,1
angle,2,253,8,180,0.0,6,2.0,equ,n,0.952587434405,1
angle,2,254,8,90,0.8,6,-1.5,comp,up,0.82322357152,1
angle,2,255,8,180,0.4,6,1.0,comp,left,0.87027814733,1
angle,2,256,8,180,0.0,6,0.0,equ,m,0.635061994708,1
angle,2,257,8,180,0.0,6,0.0,comp,right,0.893790487054,1
angle,2,258,8,270,0.4,6,0.0,equ,m,1.21131592675,1
angle,2,259,8,90,0.4,6,-0.5,equ,m,0.940800984893,1
angle,2,260,8,90,0.6,6,1.5,equ,m,0.811433672427,1
angle,2,261,8,270,0.6,6,-0.5,equ,n,0.823240052848,1
angle,2,262,8,270,0.2,6,1.5,comp,up,0.764387912211,1
angle,2,263,8,90,0.2,6,2.0,equ,n,1.3877098351,1
angle,2,264,8,0,0.4,6,0.0,equ,m,0.811491165433,1
angle,2,265,8,180,0.6,6,-1.5,equ,n,1.05840561162,1
angle,2,266,8,270,0.4,6,1.0,comp,up,0.81146586851,1
angle,2,267,8,90,0.0,6,1.0,comp,down,0.799712764942,1
angle,2,268,8,180,0.8,6,1.5,equ,n,0.858521594181,1
angle,2,269,8,0,0.2,6,-1.5,comp,left,0.870258216421,1
angle,2,270,8,0,0.8,6,1.0,equ,m,0.776137949485,1
angle,2,271,8,180,0.0,6,0.5,equ,n,1.27012782228,1
angle,2,272,8,180,0.2,6,2.0,comp,left,0.69383096213,1
angle,2,273,8,90,0.6,6,-0.5,comp,up,0.811393810609,1
angle,2,274,8,90,0.4,6,1.0,equ,m,1.24655607312,1
angle,2,275,8,0,0.8,6,-0.5,comp,left,0.858535392503,1
angle,2,276,8,0,0.8,6,-1.5,comp,left,0.94079561888,1
angle,2,277,8,270,0.8,6,-0.5,equ,n,1.07017941267,1
angle,2,278,8,0,0.6,6,2.0,equ,n,0.893753308244,1
angle,2,279,8,270,0.2,6,-0.5,comp,down,0.823240436134,1
angle,2,280,8,180,0.0,6,1.5,comp,left,0.952591267273,1
angle,2,281,8,90,0.4,6,0.5,comp,up,4.24565151649,1
angle,2,282,8,0,0.2,6,1.5,equ,m,1.08191335191,1
angle,2,283,8,90,0.2,6,1.5,equ,n,1.77581330564,1
angle,2,284,8,180,0.8,6,1.5,comp,left,0.940803667901,1
angle,2,285,8,90,0.6,6,-1.0,comp,up,0.811484266273,1
angle,2,286,8,270,0.6,6,0.5,equ,m,0.929065512514,1
angle,2,287,8,270,0.4,6,0.5,equ,m,0.670339319889,1
angle,2,288,8,0,0.2,6,0.0,equ,m,0.834988556976,1
angle,2,289,8,90,0.2,6,-1.0,comp,up,0.929037915871,1
angle,2,290,8,0,0.8,6,0.0,equ,m,1.18782313465,1
angle,2,291,8,270,0.0,6,1.5,equ,n,1.42297029566,1
angle,2,292,8,90,0.8,6,0.0,equ,n,0.91729554433,1
angle,2,293,8,0,0.2,6,-2.0,equ,n,0.870273164603,1
angle,2,294,8,180,0.4,6,-0.5,equ,m,0.976125071052,1
angle,2,295,8,180,0.6,6,0.0,comp,left,0.917288261883,1
angle,2,296,8,0,0.4,6,0.5,comp,left,1.599416331,1
angle,2,297,8,270,0.2,6,0.0,comp,down,0.870265498869,1
angle,2,298,8,0,0.4,6,1.0,comp,right,0.823217438932,1
angle,2,299,8,90,0.4,6,-2.0,equ,n,1.63467679157,1
angle,2,300,8,180,0.0,6,-0.5,equ,n,1.37597397943,1
angle,2,301,8,270,0.6,6,-0.5,comp,down,0.917325440693,1
angle,2,302,8,180,0.4,6,0.5,comp,left,0.81143098942,1
angle,2,303,8,180,0.6,6,-1.5,comp,right,0.776199658645,1
angle,2,304,8,0,0.6,6,-2.0,comp,left,0.823181026695,1
angle,2,305,8,0,0.0,6,-2.0,comp,left,0.670328204574,1
angle,2,306,8,90,0.8,6,1.5,equ,m,1.03491588582,1
angle,2,307,8,0,0.6,6,-1.5,equ,n,0.870285046491,1
angle,2,308,8,180,0.6,6,-0.5,equ,m,1.11722363974,1
angle,2,309,8,0,0.2,6,-0.5,equ,n,0.987850194691,1
angle,2,310,8,180,0.2,6,-2.0,comp,right,0.764425857594,1
angle,2,311,8,270,0.4,6,1.5,comp,up,0.752864397379,1
angle,2,312,8,90,0.6,6,1.0,equ,m,1.14074901122,1
angle,2,313,8,270,0.8,6,0.0,comp,down,2.64604124242,1
angle,2,314,8,180,0.0,6,-1.5,equ,n,0.823218205505,1
angle,2,315,8,270,0.4,6,-1.0,comp,down,0.811465485224,1
angle,2,316,8,90,0.8,6,-1.5,equ,n,1.70524447368,1
angle,2,317,8,270,0.2,6,-2.0,comp,down,1.09394932107,1
angle,2,318,8,180,0.0,6,-2.0,equ,n,1.17604818374,1
angle,2,319,8,270,0.8,6,1.0,comp,up,1.89337883713,1
angle,2,320,8,90,0.0,6,1.5,comp,down,0.658569734992,1
angle,2,321,8,180,0.4,6,1.5,equ,n,1.11720332555,1
angle,2,322,8,0,0.0,6,-0.5,comp,left,0.705619328075,1
angle,2,323,8,270,0.0,6,1.5,comp,up,0.717373581504,1
angle,2,324,8,180,0.8,6,-1.0,equ,m,0.834924548095,1
angle,2,325,8,270,0.4,6,-0.5,comp,down,1.11724778681,1
angle,2,326,8,0,0.4,6,2.0,equ,n,1.01136790043,1
angle,2,327,8,180,0.6,6,-2.0,comp,right,0.752658189132,1
angle,2,328,8,0,0.4,6,2.0,comp,right,0.729133200946,1
angle,2,329,8,0,0.0,6,-1.5,comp,left,0.823213606065,1
angle,2,330,8,0,0.0,6,-1.0,comp,left,0.905534391742,1
angle,2,331,8,180,0.4,6,-1.0,comp,right,0.78792171599,1
angle,2,332,8,90,0.4,6,-1.5,equ,n,0.893651353979,1
angle,2,333,8,90,0.4,6,0.0,equ,n,0.729130517939,1
angle,2,334,8,270,0.0,6,1.0,equ,m,0.940845829438,1
angle,2,335,8,0,0.0,6,-2.0,equ,n,1.49353376162,1
angle,2,336,8,0,0.6,6,1.5,comp,right,0.729112120177,1
angle,2,337,8,0,0.8,6,-0.5,equ,m,1.25837663515,1
angle,2,338,8,270,0.8,6,-1.0,comp,down,0.870262815862,1
angle,2,339,8,90,0.4,6,1.5,comp,down,0.940823982096,1
angle,2,340,8,270,0.6,6,-1.5,comp,down,0.881995221948,1
angle,2,341,8,0,0.4,6,1.0,equ,m,0.940792552586,1
angle,2,342,8,270,0.8,6,-2.0,equ,n,0.76438446263,1
angle,2,343,8,270,0.8,6,0.5,equ,m,0.740877105633,1
angle,2,344,8,90,0.4,6,-1.0,equ,n,1.12898632548,1
angle,2,345,8,90,0.8,6,-1.0,equ,n,0.740893970248,1
angle,2,346,8,90,0.2,6,-0.5,equ,m,0.740916584164,1
angle,2,347,8,270,0.4,6,2.0,equ,n,0.905512161112,1
angle,2,348,8,0,0.4,6,-0.5,comp,right,0.905538991182,1
angle,2,349,8,90,0.0,6,0.5,comp,down,0.940795235593,1
angle,2,350,8,270,0.0,6,2.0,equ,n,3.45755003904,1
angle,2,351,8,90,0.8,6,0.5,comp,up,1.45802416469,1
angle,2,352,8,0,0.0,6,-0.5,equ,m,0.740911984724,1
angle,2,353,8,90,0.0,6,0.5,equ,m,2.2109081097,1
angle,2,354,8,270,0.6,6,-1.5,equ,n,0.799692450747,1
angle,2,355,8,270,0.0,6,0.0,comp,down,0.999624379028,1
angle,2,356,8,90,0.2,6,-1.0,equ,n,0.882016686003,1
angle,2,357,8,90,0.2,6,0.0,comp,up,0.72913511738,1
angle,2,358,8,270,0.0,6,0.5,comp,down,0.999622079307,1
angle,2,359,8,90,0.8,6,1.0,equ,m,1.02316891483,1
angle,2,360,8,270,0.8,6,-1.5,comp,down,0.717377414371,1
angle,3,1,8,90,0.8,6,1.5,equ,n,1.45827023476,1
angle,3,2,8,270,0.0,6,-1.0,comp,down,0.740854875005,1
angle,3,3,8,90,0.8,6,-1.0,comp,up,0.893775538872,1
angle,3,4,8,0,0.4,6,0.0,comp,right,1.0701556489,1
angle,3,5,8,0,0.0,6,1.5,comp,right,0.670333187301,1
angle,3,6,8,180,0.0,6,-1.5,comp,right,0.776164012981,1
angle,3,7,8,0,0.2,6,1.5,equ,n,0.917297077478,1
angle,3,8,8,180,0.4,6,1.5,equ,n,0.882013236423,1
angle,3,9,8,180,0.8,6,0.0,comp,left,1.30541051348,1
angle,3,10,8,180,0.4,6,2.0,comp,left,0.764377563469,1
angle,3,11,8,270,0.0,6,1.5,comp,up,0.811452836762,1
angle,3,12,8,270,0.0,6,-1.5,equ,n,0.870257833135,1
angle,3,13,8,90,0.2,6,0.0,comp,up,1.49353567805,1
angle,3,14,8,0,0.2,6,-0.5,equ,n,1.05840791134,1
angle,3,15,8,0,0.2,6,1.0,equ,m,1.69348753724,1
angle,3,16,8,270,0.8,6,-1.5,equ,n,1.65818568171,1
angle,3,17,8,90,0.4,6,1.0,comp,down,0.929076627828,1
angle,3,18,8,0,0.8,6,0.5,comp,right,1.02304856281,1
angle,3,19,8,0,0.4,6,-1.0,comp,left,0.705630060103,1
angle,3,20,8,180,0.8,6,1.5,equ,n,1.41124938818,1
angle,3,21,8,270,0.2,6,0.0,comp,down,0.917267181114,1
angle,3,22,8,90,0.4,6,-1.5,equ,n,1.50534359162,1
angle,3,23,8,0,0.6,6,-1.0,comp,left,0.752654356264,1
angle,3,24,8,90,0.6,6,-0.5,comp,up,1.75223427403,1
angle,3,25,8,180,0.4,6,0.5,comp,left,0.764404010252,1
angle,3,26,8,0,0.6,6,-2.0,equ,n,0.85847176691,1
angle,3,27,8,270,0.0,6,1.5,equ,n,1.21131631004,1
angle,3,28,8,90,0.6,6,0.5,equ,m,0.917324290833,1
angle,3,29,8,270,0.6,6,-0.5,equ,n,0.799681718719,1
angle,3,30,8,270,0.6,6,-1.0,comp,down,0.870226403625,1
angle,3,31,8,180,0.8,6,1.5,comp,left,0.729155048288,1
angle,3,32,8,270,0.2,6,-1.0,equ,n,0.882040833066,1
angle,3,33,8,0,0.8,6,2.0,equ,n,0.870285813064,1
angle,3,34,8,0,0.0,6,1.5,equ,n,1.0349365833,1
angle,3,35,8,90,0.6,6,1.5,comp,down,0.764446555077,1
angle,3,36,8,90,0.2,6,-1.0,equ,n,0.999581834203,1
angle,3,37,8,180,0.4,6,-0.5,comp,right,0.917272547128,1
angle,3,38,8,180,0.2,6,-1.0,comp,right,0.658565518838,1
angle,3,39,8,180,0.8,6,-1.5,equ,n,0.893800452508,1
angle,3,40,8,90,0.2,6,0.0,equ,m,1.9639361705,1
angle,3,41,8,0,0.2,6,0.0,comp,left,0.799702799488,1
angle,3,42,8,90,0.4,6,0.0,equ,m,0.846749709564,1
angle,3,43,8,270,0.8,6,0.5,comp,down,0.834973225507,1
angle,3,44,8,270,0.4,6,0.0,equ,n,3.2339942346,1
angle,3,45,8,180,0.6,6,1.0,comp,left,0.787936664171,1
angle,3,46,8,90,0.0,6,1.0,equ,m,1.92864236399,1
angle,3,47,8,270,0.2,6,1.5,equ,m,1.30538866614,1
angle,3,48,8,0,0.4,6,-0.5,comp,left,0.623323456035,1
angle,3,49,8,270,0.4,6,-1.0,equ,n,0.764189369697,1
angle,3,50,8,270,0.4,6,1.0,equ,m,0.964290327415,1
angle,3,51,8,270,0.2,6,0.5,comp,down,0.693872357094,1
angle,3,52,8,0,0.2,6,-1.0,comp,left,0.787926698717,1
angle,3,53,8,90,0.8,6,-1.0,equ,n,0.893748708803,1
angle,3,54,8,90,0.8,6,-2.0,equ,n,0.740878255493,1
angle,3,55,8,90,0.0,6,1.5,equ,m,0.799685934873,1
angle,3,56,8,90,0.8,6,1.0,comp,down,0.693885388842,1
angle,3,57,8,270,0.8,6,0.0,comp,down,0.964312558044,1
angle,3,58,8,0,0.2,6,2.0,equ,n,0.976098624269,1
angle,3,59,8,270,0.8,6,2.0,comp,up,0.905535924888,1
angle,3,60,8,270,0.8,6,2.0,equ,n,0.905523276427,1
angle,3,61,8,270,0.4,6,-2.0,comp,down,0.729107520737,1
angle,3,62,8,180,0.4,6,0.0,equ,m,0.834955594319,1
angle,3,63,8,0,0.0,6,1.0,comp,right,0.858497447119,1
angle,3,64,8,180,0.6,6,-1.5,equ,n,1.17599644003,1
angle,3,65,8,0,0.0,6,-1.0,comp,left,0.752627142908,1
angle,3,66,8,0,0.4,6,1.0,equ,m,0.929030633424,1
angle,3,67,8,180,0.0,6,-1.0,equ,n,1.32891672061,1
angle,3,68,8,270,0.4,6,2.0,comp,up,0.77627708256,1
angle,3,69,8,180,0.8,6,-0.5,equ,m,0.964354719581,1
angle,3,70,8,180,0.6,6,1.5,comp,left,0.976104756856,1
angle,3,71,8,90,0.4,6,0.0,comp,up,1.89321095755,1
angle,3,72,8,90,0.8,6,0.5,equ,m,0.905548573349,1
angle,3,73,8,0,0.4,6,-1.0,equ,n,1.05841442722,1
angle,3,74,8,0,0.0,6,0.5,comp,right,0.693873123668,1
angle,3,75,8,270,0.2,6,-1.5,comp,down,0.682109288072,1
angle,3,76,8,270,0.8,6,-1.5,comp,down,0.658539072055,1
angle,3,77,8,180,0.0,6,-2.0,comp,right,0.776172828575,1
angle,3,78,8,270,0.8,6,-1.0,comp,down,0.682086290869,1
angle,3,79,8,0,0.0,6,1.0,equ,m,0.846763891172,1
angle,3,80,8,180,0.8,6,-1.5,comp,right,0.764436972909,1
angle,3,81,8,90,0.4,6,-1.0,comp,up,0.89377937174,1
angle,3,82,8,270,0.0,6,-2.0,comp,down,1.24658366976,1
angle,3,83,8,180,0.2,6,-1.5,equ,n,0.882015152857,1
angle,3,84,8,0,0.6,6,0.5,equ,m,0.91729209475,1
angle,3,85,8,180,0.8,6,-2.0,comp,right,0.65860959681,1
angle,3,86,8,90,0.0,6,0.0,equ,m,0.834973992081,1
angle,3,87,8,180,0.4,6,0.0,comp,right,0.858495913972,1
angle,3,88,8,90,0.8,6,-0.5,equ,n,0.940824365383,1
angle,3,89,8,90,0.6,6,-1.5,equ,n,0.846717513481,1
angle,3,90,8,0,0.6,6,-1.5,comp,left,0.705653823879,1
angle,3,91,8,270,0.0,6,2.0,comp,up,0.870232536212,1
angle,3,92,8,90,0.0,6,-1.0,comp,up,0.764446938363,1
angle,3,93,8,270,0.4,6,1.5,comp,up,0.693859325346,1
angle,3,94,8,0,0.4,6,-1.5,equ,n,0.834998905716,1
angle,3,95,8,0,0.8,6,1.5,comp,right,0.823206323618,1
angle,3,96,8,180,0.6,6,0.0,comp,right,0.799720813963,1
angle,3,97,8,0,0.8,6,-0.5,equ,m,1.32894048439,1
angle,3,98,8,0,0.0,6,-1.0,equ,n,0.858499746839,1
angle,3,99,8,180,0.8,6,-1.0,comp,right,0.682070192828,1
angle,3,100,8,270,0.0,6,0.5,comp,down,2.03453029939,1
angle,3,101,8,0,0.2,6,0.5,comp,right,0.870255916701,1
angle,3,102,8,90,0.4,6,0.5,comp,down,0.658605763942,1
angle,3,103,8,90,0.0,6,-2.0,equ,n,0.92906244622,1
angle,3,104,8,90,0.2,6,1.0,equ,m,0.729133584233,1
angle,3,105,8,90,0.4,6,-0.5,comp,up,1.01136330099,1
angle,3,106,8,90,0.8,6,0.0,equ,m,0.85853462593,1
angle,3,107,8,270,0.6,6,0.5,comp,down,0.82323162054,1
angle,3,108,8,90,0.0,6,-1.0,equ,n,0.799687851306,1
angle,3,109,8,180,0.0,6,1.0,equ,m,1.47003790322,1
angle,3,110,8,90,0.6,6,0.5,comp,up,0.858506262713,1
angle,3,111,8,270,0.0,6,-1.0,equ,n,2.62251395451,1
angle,3,112,8,270,0.6,6,-0.5,comp,down,0.835003888444,1
angle,3,113,8,0,0.0,6,0.0,comp,left,0.917294777757,1
angle,3,114,8,0,0.4,6,-1.5,comp,left,0.670304440798,1
angle,3,115,8,180,0.8,6,1.0,equ,m,0.976125454338,1
angle,3,116,8,180,0.0,6,-2.0,equ,n,1.07016101491,1
angle,3,117,8,0,0.8,6,-2.0,equ,n,1.66995909948,1
angle,3,118,8,270,0.2,6,0.5,equ,m,1.11723590492,1
angle,3,119,8,180,0.0,6,2.0,equ,n,0.82317336096,1
angle,3,120,8,180,0.2,6,0.0,comp,right,0.882010936703,1
angle,3,121,8,0,0.2,6,1.0,comp,right,0.79972004739,1
angle,3,122,8,270,0.6,6,2.0,comp,up,0.811660578157,1
angle,3,123,8,0,0.2,6,2.0,comp,right,0.752690768501,1
angle,3,124,8,0,0.6,6,-1.5,equ,n,0.858494764112,1
angle,3,125,8,270,0.0,6,-2.0,equ,n,1.08193404939,1
angle,3,126,8,0,0.8,6,0.5,equ,m,0.823193675156,1
angle,3,127,8,180,0.2,6,1.0,comp,left,1.48176800959,1
angle,3,128,8,180,0.2,6,0.5,equ,m,0.87028274677,1
angle,3,129,8,180,0.2,6,-1.5,comp,right,0.705614728635,1
angle,3,130,8,90,0.6,6,-1.0,comp,up,0.72913626724,1
angle,3,131,8,180,0.0,6,-0.5,comp,right,0.811457436203,1
angle,3,132,8,90,0.2,6,-1.0,comp,up,1.08197314463,1
angle,3,133,8,180,0.8,6,-1.0,equ,n,0.905525576147,1
angle,3,134,8,270,0.6,6,1.5,equ,n,0.84671176418,1
angle,3,135,8,180,0.0,6,-0.5,equ,m,0.76438331277,1
angle,3,136,8,90,0.2,6,2.0,equ,n,0.893791636914,1
angle,3,137,8,90,0.6,6,-0.5,equ,n,0.787988024591,1
angle,3,138,8,0,0.8,6,1.0,comp,right,0.776182027456,1
angle,3,139,8,0,0.4,6,2.0,comp,right,0.717338319127,1
angle,3,140,8,270,0.2,6,2.0,equ,n,0.834974375367,1
angle,3,141,8,270,0.6,6,1.0,equ,m,0.705635042831,1
angle,3,142,8,180,0.2,6,0.0,equ,m,0.870257449847,1
angle,3,143,8,180,0.2,6,-2.0,equ,n,0.682055244646,1
angle,3,144,8,270,0.8,6,-2.0,comp,down,0.905523276427,1
angle,3,145,8,180,0.2,6,2.0,equ,n,1.56408611226,1
angle,3,146,8,90,0.6,6,1.0,equ,m,0.952556004896,1
angle,3,147,8,270,0.6,6,-2.0,comp,down,0.693844377165,1
angle,3,148,8,270,0.2,6,1.5,comp,up,0.799706632355,1
angle,3,149,8,270,0.4,6,-1.5,comp,down,0.635060461561,1
angle,3,150,8,90,0.4,6,-2.0,equ,n,0.929063212794,1
angle,3,151,8,180,0.8,6,0.5,comp,left,0.799652972216,1
angle,3,152,8,90,0.2,6,1.5,comp,down,4.05733010913,1
angle,3,153,8,270,0.6,6,-2.0,equ,n,2.26963414901,1
angle,3,154,8,90,0.0,6,-0.5,comp,up,0.917300143771,1
angle,3,155,8,180,0.6,6,-2.0,equ,n,1.04665020834,1
angle,3,156,8,0,0.0,6,-1.5,comp,left,0.787944329905,1
angle,3,157,8,270,0.6,6,0.0,comp,down,1.01134528651,1
angle,3,158,8,180,0.8,6,-2.0,equ,n,2.25796191893,1
angle,3,159,8,90,0.6,6,2.0,comp,down,1.75225420494,1
angle,3,160,8,180,0.2,6,1.0,equ,m,0.858509712294,1
angle,3,161,8,90,0.0,6,-1.5,comp,up,0.834978591521,1
angle,3,162,8,0,0.0,6,-1.5,equ,n,0.82320249075,1
angle,3,163,8,0,0.6,6,0.0,comp,left,3.22234231872,1
angle,3,164,8,270,0.4,6,0.5,comp,down,1.37576892104,1
angle,3,165,8,0,0.4,6,1.5,comp,right,0.77618969319,1
angle,3,166,8,90,0.4,6,1.5,comp,down,0.987896572382,1
angle,3,167,8,180,0.2,6,-0.5,comp,right,0.858500896699,1
angle,3,168,8,0,0.2,6,-2.0,equ,n,0.729121702345,1
angle,3,169,8,0,0.4,6,1.0,comp,right,0.588213627146,1
angle,3,170,8,270,0.4,6,-1.0,comp,down,0.929105374331,1
angle,3,171,8,180,0.0,6,-1.5,equ,n,0.882021668731,1
angle,3,172,8,0,0.0,6,0.0,equ,m,0.776152897667,1
angle,3,173,8,180,0.8,6,1.0,comp,right,1.83457690705,1
angle,3,174,8,0,0.8,6,0.0,equ,m,2.36380079363,1
angle,3,175,8,270,0.0,6,0.5,equ,n,0.823230853967,1
angle,3,176,8,0,0.2,6,-1.5,equ,n,1.68169265542,1
angle,3,177,8,270,0.2,6,-1.0,comp,down,0.776202724939,1
angle,3,178,8,180,0.6,6,-2.0,comp,right,0.752655889411,1
angle,3,179,8,0,0.4,6,0.5,comp,right,0.882034317192,1
angle,3,180,8,180,0.6,6,-1.5,comp,right,0.670339319889,1
angle,3,181,8,180,0.6,6,-0.5,comp,right,0.95256597035,1
angle,3,182,8,270,0.0,6,-0.5,comp,down,0.776159030254,1
angle,3,183,8,180,0.8,6,2.0,equ,n,1.11722862247,1
angle,3,184,8,0,0.6,6,0.0,equ,m,0.893801985655,1
angle,3,185,8,0,0.2,6,0.0,equ,m,0.717385846678,1
angle,3,186,8,90,0.2,6,-1.5,comp,up,0.799685934873,1
angle,3,187,8,90,0.2,6,2.0,comp,down,0.693783434579,1
angle,3,188,8,270,0.0,6,0.0,comp,down,0.858501279986,1
angle,3,189,8,90,0.0,6,2.0,comp,down,0.787931681444,1
angle,3,190,8,180,0.8,6,-0.5,comp,right,0.858520444321,1
angle,3,191,8,90,0.2,6,-0.5,equ,n,0.823220505225,1
angle,3,192,8,0,0.6,6,1.0,equ,m,0.705637725837,1
angle,3,193,8,270,0.4,6,-0.5,comp,down,0.752646307244,1
angle,3,194,8,270,0.8,6,-0.5,equ,n,1.62292407129,1
angle,3,195,8,270,0.8,6,1.5,equ,n,1.68182335619,1
angle,3,196,8,0,0.6,6,2.0,comp,right,0.658550953943,1
angle,3,197,8,270,0.4,6,-0.5,equ,m,0.893824599571,1
angle,3,198,8,270,0.6,6,0.0,equ,m,0.905542824049,1
angle,3,199,8,90,0.2,6,-2.0,comp,up,2.31680639384,1
angle,3,200,8,180,0.4,6,-2.0,equ,n,0.964343987554,1
angle,3,201,8,0,0.0,6,0.5,equ,m,0.987860926718,1
angle,3,202,8,180,0.2,6,1.5,equ,n,0.940826665103,1
angle,3,203,8,270,0.8,6,-2.0,equ,n,0.882009020269,1
angle,3,204,8,180,0.6,6,1.5,equ,n,0.870260899428,1
angle,3,205,8,90,0.8,6,0.0,comp,up,0.693889221709,1
angle,3,206,8,270,0.8,6,-1.0,equ,n,0.964344754128,1
angle,3,207,8,90,0.6,6,1.5,equ,m,1.68172523479,1
angle,3,208,8,0,0.6,6,0.5,comp,right,0.76441934172,1
angle,3,209,8,90,0.2,6,0.5,equ,m,1.10543948995,1
angle,3,210,8,0,0.6,6,-0.5,equ,m,0.776159796827,1
angle,3,211,8,0,0.2,6,-2.0,comp,left,0.752674287173,1
angle,3,212,8,180,0.8,6,0.0,equ,m,1.68174209941,1
angle,3,213,8,0,0.2,6,-0.5,comp,left,1.10546593674,1
angle,3,214,8,270,0.4,6,0.5,equ,m,2.68132546676,1
angle,3,215,8,0,0.0,6,-2.0,comp,left,0.717372431644,1
angle,3,216,8,0,0.8,6,-1.5,comp,left,0.682097022897,1
angle,3,217,8,0,0.4,6,-2.0,equ,n,0.799751476899,1
angle,3,218,8,90,0.6,6,1.0,comp,down,1.77588459697,1
angle,3,219,8,270,0.4,6,-2.0,equ,n,0.823255001029,1
angle,3,220,8,90,0.2,6,-0.5,comp,up,2.14038680528,1
angle,3,221,8,90,0.0,6,-1.5,equ,n,0.858528110055,1
angle,3,222,8,180,0.6,6,0.5,comp,right,1.03490630365,1
angle,3,223,8,0,0.8,6,-0.5,comp,right,2.11685223493,1
angle,3,224,8,0,0.4,6,1.5,equ,n,1.16426595038,1
angle,3,225,8,90,0.2,6,0.5,comp,up,1.9992648561,1
angle,3,226,8,90,0.4,6,-2.0,comp,up,0.787965793961,1
angle,3,227,8,90,0.4,6,2.0,comp,down,0.823207473477,1
angle,3,228,8,180,0.0,6,0.0,equ,m,1.70521764361,1
angle,3,229,8,90,0.6,6,0.0,equ,n,1.94044491154,1
angle,3,230,8,180,0.0,6,0.5,comp,left,1.14078197387,1
angle,3,231,8,180,0.4,6,-1.5,equ,n,1.08191833463,1
angle,3,232,8,0,0.6,6,-0.5,comp,right,1.95219954826,1
angle,3,233,8,270,0.0,6,-1.5,comp,down,0.952607748601,1
angle,3,234,8,0,0.6,6,1.0,comp,right,0.94082474867,1
angle,3,235,8,90,0.4,6,-1.5,comp,up,0.823207090191,1
angle,3,236,8,270,0.6,6,1.0,comp,up,0.89381310097,1
angle,3,237,8,180,0.6,6,-0.5,equ,m,0.976099774129,1
angle,3,238,8,0,0.2,6,1.5,comp,right,0.752631742348,1
angle,3,239,8,270,0.2,6,-2.0,equ,n,0.787954678647,1
angle,3,240,8,0,0.6,6,1.5,comp,right,1.199547875,1
angle,3,241,8,180,0.4,6,1.0,comp,left,1.09370976687,1
angle,3,242,8,270,0.4,6,2.0,equ,n,0.929082760415,1
angle,3,243,8,180,0.4,6,-1.5,comp,right,0.811458586062,1
angle,3,244,8,270,0.2,6,2.0,comp,up,1.05845122274,1
angle,3,245,8,0,0.2,6,-1.5,comp,left,0.834982424389,1
angle,3,246,8,0,0.4,6,-0.5,equ,m,1.02316623183,1
angle,3,247,8,270,0.8,6,1.0,equ,m,1.05842132638,1
angle,3,248,8,180,0.2,6,0.5,comp,left,0.846744343551,1
angle,3,249,8,90,0.6,6,-1.5,comp,up,0.717337169267,1
angle,3,250,8,0,0.0,6,-0.5,comp,left,0.893757524397,1
angle,3,251,8,180,0.0,6,1.5,comp,left,0.858529259915,1
angle,3,252,8,0,0.4,6,-2.0,comp,left,0.976120471611,1
angle,3,253,8,180,0.6,6,2.0,comp,left,0.823217055646,1
angle,3,254,8,270,0.6,6,0.5,equ,m,0.787934364452,1
angle,3,255,8,180,0.6,6,0.0,equ,m,0.717380480664,1
angle,3,256,8,270,0.4,6,1.0,comp,up,0.811482349839,1
angle,3,257,8,0,0.8,6,1.0,equ,m,1.97572683616,1
angle,3,258,8,0,0.8,6,2.0,comp,right,0.752671987452,1
angle,3,259,8,90,0.2,6,-2.0,equ,n,0.905562371671,1
angle,3,260,8,90,0.8,6,-2.0,comp,up,0.952552172028,1
angle,3,261,8,0,0.6,6,-1.0,equ,n,0.976076776928,1
angle,3,262,8,90,0.8,6,2.0,equ,n,0.834982041101,1
angle,3,263,8,0,0.8,6,0.0,comp,right,1.50531714484,1
angle,3,264,8,90,0.6,6,0.0,comp,up,1.25835095494,1
angle,3,265,8,270,0.2,6,1.0,comp,up,0.858518144601,1
angle,3,266,8,180,0.4,6,-1.0,equ,n,2.06984288695,1
angle,3,267,8,180,0.6,6,1.0,equ,m,0.705641941991,1
angle,3,268,8,90,0.4,6,1.5,equ,m,1.89341294965,1
angle,3,269,8,0,0.0,6,-0.5,equ,m,0.84674894299,1
angle,3,270,8,180,0.2,6,-0.5,equ,n,0.94083049797,1
angle,3,271,8,180,0.4,6,1.0,equ,m,0.752652056544,1
angle,3,272,8,270,0.8,6,0.5,equ,m,0.929071645101,1
angle,3,273,8,270,0.2,6,0.0,equ,m,1.32893396852,1
angle,3,274,8,90,0.8,6,2.0,comp,down,0.870273931177,1
angle,3,275,8,0,0.2,6,-1.0,equ,n,0.89375829097,1
angle,3,276,8,180,0.4,6,-2.0,comp,right,0.870236369079,1
angle,3,277,8,270,0.8,6,1.0,comp,up,0.799673286411,1
angle,3,278,8,0,0.6,6,1.5,equ,m,2.48142305155,1
angle,3,279,8,270,0.4,6,1.5,equ,m,1.42252683294,1
angle,3,280,8,180,0.6,6,-1.0,comp,right,3.82210514091,1
angle,3,281,8,0,0.4,6,0.5,equ,m,1.15253201115,1
angle,3,282,8,180,0.0,6,-1.0,comp,right,0.729137417099,1
angle,3,283,8,0,0.4,6,0.0,equ,m,1.79928693341,1
angle,3,284,8,90,0.6,6,-2.0,comp,up,0.693829045696,1
angle,3,285,8,180,0.6,6,2.0,equ,n,1.36419366251,1
angle,3,286,8,180,0.6,6,0.5,equ,m,1.28186942725,1
angle,3,287,8,90,0.2,6,1.0,comp,up,1.35221748608,1
angle,3,288,8,270,0.8,6,-0.5,comp,down,0.84674089397,1
angle,3,289,8,90,0.0,6,1.0,comp,down,0.882016686004,1
angle,3,290,8,0,0.6,6,2.0,equ,n,1.05843052526,1
angle,3,291,8,270,0.0,6,2.0,equ,n,0.870256683274,1
angle,3,292,8,90,0.0,6,1.5,comp,down,0.976130053779,1
angle,3,293,8,90,0.8,6,0.5,comp,up,0.729131667799,1
angle,3,294,8,90,0.2,6,-1.5,equ,n,0.952570186503,1
angle,3,295,8,180,0.8,6,0.5,equ,m,0.976127754058,1
angle,3,296,8,0,0.8,6,-2.0,comp,left,0.693852809472,1
angle,3,297,8,180,0.0,6,0.0,comp,right,0.882014002997,1
angle,3,298,8,90,0.4,6,-0.5,equ,n,0.834950994878,1
angle,3,299,8,90,0.6,6,2.0,equ,m,0.729128984793,1
angle,3,300,8,0,0.2,6,0.5,equ,m,1.85809691251,1
angle,3,301,8,180,0.0,6,2.0,comp,left,0.846733228236,1
angle,3,302,8,90,0.8,6,-1.5,comp,up,0.92903791587,1
angle,3,303,8,90,0.6,6,-1.0,equ,n,1.19952641095,1
angle,3,304,8,0,0.6,6,-2.0,comp,left,0.670335103734,1
angle,3,305,8,0,0.0,6,-2.0,equ,n,0.811487332566,1
angle,3,306,8,90,0.8,6,1.0,equ,m,0.90554857335,1
angle,3,307,8,180,0.0,6,1.0,comp,left,0.776119935011,1
angle,3,308,8,90,0.0,6,-0.5,equ,n,0.858482115651,1
angle,3,309,8,270,0.6,6,-1.0,equ,n,0.705613578774,1
angle,3,310,8,180,0.2,6,1.5,comp,left,0.752634042069,1
angle,3,311,8,0,0.0,6,2.0,comp,right,0.588010868478,1
angle,3,312,8,180,0.4,6,-1.0,comp,right,0.752683869341,1
angle,3,313,8,90,0.4,6,1.0,equ,m,0.96434207112,1
angle,3,314,8,90,0.2,6,1.5,equ,n,0.670358867511,1
angle,3,315,8,270,0.4,6,0.0,comp,down,0.999641243642,1
angle,3,316,8,180,0.0,6,1.5,equ,n,1.09367948722,1
angle,3,317,8,180,0.6,6,-1.0,equ,n,1.02315281679,1
angle,3,318,8,0,0.8,6,1.5,equ,n,0.929041365452,1
angle,3,319,8,180,0.4,6,2.0,equ,n,0.964322906785,1
angle,3,320,8,90,0.4,6,2.0,equ,m,0.917294011183,1
angle,3,321,8,90,0.6,6,-2.0,equ,n,0.870248634254,1
angle,3,322,8,270,0.4,6,-1.5,equ,n,0.811485416132,1
angle,3,323,8,180,0.4,6,1.5,comp,left,0.787937430745,1
angle,3,324,8,0,0.4,6,2.0,equ,n,1.64644560989,1
angle,3,325,8,270,0.0,6,-0.5,equ,n,1.30538789956,1
angle,3,326,8,270,0.0,6,0.0,equ,m,0.693801832341,1
angle,3,327,8,180,0.4,6,-0.5,equ,m,0.858479049358,1
angle,3,328,8,0,0.8,6,-1.0,comp,left,0.81143213928,1
angle,3,329,8,0,0.8,6,-1.0,equ,n,0.83493911299,1
angle,3,330,8,0,0.8,6,-1.5,equ,n,1.09369711841,1
angle,3,331,8,90,0.8,6,-1.5,equ,n,0.799682485292,1
angle,3,332,8,270,0.2,6,-0.5,comp,down,0.929076627828,1
angle,3,333,8,90,0.0,6,0.5,comp,up,0.81143788858,1
angle,3,334,8,270,0.6,6,-1.5,equ,n,2.66900931502,1
angle,3,335,8,270,0.6,6,1.5,comp,up,0.764430457035,1
angle,3,336,8,90,0.0,6,-2.0,comp,up,0.729139333534,1
angle,3,337,8,90,0.4,6,-1.0,equ,n,0.893794319921,1
angle,3,338,8,90,0.8,6,-0.5,comp,up,0.729063826052,1
angle,3,339,8,270,0.2,6,1.0,equ,m,1.15252051255,1
angle,3,340,8,270,0.2,6,-1.5,equ,n,0.599770487921,1
angle,3,341,8,90,0.0,6,0.5,equ,m,1.39946907125,1
angle,3,342,8,180,0.2,6,-1.0,equ,n,0.76442049158,1
angle,3,343,8,270,0.8,6,0.0,equ,m,1.05838108128,1
angle,3,344,8,270,0.0,6,1.0,equ,m,0.952600466153,1
angle,3,345,8,180,0.2,6,2.0,comp,left,0.823216289072,1
angle,3,346,8,0,0.0,6,2.0,equ,n,0.976124687765,1
angle,3,347,8,270,0.2,6,-0.5,equ,n,0.787927465291,1
angle,3,348,8,90,0.0,6,2.0,equ,n,0.717345984861,1
angle,3,349,8,90,0.4,6,0.5,equ,m,0.658575484292,1
angle,3,350,8,180,0.2,6,-2.0,comp,right,0.670316705972,1
angle,3,351,8,180,0.0,6,0.5,equ,m,1.02311985414,1
angle,3,352,8,180,0.8,6,2.0,comp,left,1.99925374078,1
angle,3,353,8,90,0.8,6,1.5,comp,up,1.63467564171,1
angle,3,354,8,270,0.6,6,-1.5,comp,down,0.823212072918,1
angle,3,355,8,270,0.2,6,-2.0,comp,down,0.799697433474,1
angle,3,356,8,180,0.4,6,0.5,equ,m,0.776187776757,1
angle,3,357,8,270,0.8,6,1.5,comp,up,0.71739849514,1
angle,3,358,8,270,0.0,6,1.0,comp,up,0.893751008522,1
angle,3,359,8,270,0.6,6,2.0,equ,n,0.929060146499,1
angle,3,360,8,90,0.0,6,0.0,comp,up,1.72873228305,1
angle,4,1,8,180,0.0,6,2.0,comp,left,0.776145615219,1
angle,4,2,8,270,0.0,6,2.0,equ,n,1.62292598772,1
angle,4,3,8,180,0.0,6,-1.5,comp,right,0.670335870308,1
angle,4,4,8,180,0.4,6,-1.5,comp,right,0.635053945688,1
angle,4,5,8,180,0.2,6,2.0,equ,n,0.77615826368,1
angle,4,6,8,270,0.8,6,-1.5,comp,down,0.799680952146,1
angle,4,7,8,180,0.6,6,-2.0,equ,n,0.98786667602,1
angle,4,8,8,180,0.0,6,1.5,equ,n,0.799667920398,1
angle,4,9,8,90,0.8,6,0.5,equ,m,1.15252779499,1
angle,4,10,8,0,0.0,6,1.0,equ,n,0.870237135652,1
angle,4,11,8,180,0.6,6,1.0,equ,n,0.811439805014,1
angle,4,12,8,270,0.6,6,-0.5,equ,n,0.823221271799,1
angle,4,13,8,180,0.6,6,1.5,comp,left,0.776172828576,1
angle,4,14,8,90,0.8,6,-1.0,equ,n,2.1050807336,1
angle,4,15,8,180,0.8,6,-1.5,comp,right,0.658578167299,1
angle,4,16,8,0,0.0,6,-0.5,equ,m,0.846724029355,1
angle,4,17,8,0,0.4,6,-2.0,equ,n,0.611551954705,1
angle,4,18,8,90,0.0,6,-1.5,equ,n,0.846703331873,1
angle,4,19,8,270,0.6,6,-1.0,equ,n,0.74091351787,1
angle,4,20,8,90,0.6,6,1.5,comp,down,0.917292861323,1
angle,4,21,8,270,0.0,6,-2.0,comp,down,0.976073710634,1
angle,4,22,8,180,0.6,6,0.0,comp,right,0.952575169231,1
angle,4,23,8,0,0.6,6,-1.0,comp,left,1.43472799867,1
angle,4,24,8,0,0.0,6,-1.5,comp,left,0.646784052053,1
angle,4,25,8,90,0.0,6,-1.5,comp,up,0.811452836762,1
angle,4,26,8,270,0.8,6,-0.5,comp,down,0.834994689562,1
angle,4,27,8,0,0.6,6,1.5,equ,n,0.740880938501,1
angle,4,28,8,90,0.0,6,-0.5,comp,up,1.01138974777,1
angle,4,29,8,0,0.0,6,0.5,comp,right,0.740853725145,1
angle,4,30,8,0,0.8,6,2.0,comp,right,0.635046279953,1
angle,4,31,8,180,0.2,6,0.0,equ,m,0.999561136721,1
angle,4,32,8,90,0.4,6,-1.0,equ,n,1.1407352129,1
angle,4,33,8,180,0.4,6,1.0,comp,left,0.799704332635,1
angle,4,34,8,0,0.2,6,-1.0,equ,n,0.740881321787,1
angle,4,35,8,180,0.6,6,-1.0,comp,right,0.764417808574,1
angle,4,36,8,90,0.8,6,-0.5,equ,m,0.976110889444,1
angle,4,37,8,180,0.2,6,1.0,equ,n,1.21131209388,1
angle,4,38,8,90,0.6,6,-2.0,equ,n,0.799699349907,1
angle,4,39,8,90,0.4,6,-1.5,equ,n,0.729139333534,1
angle,4,40,8,270,0.4,6,-1.5,equ,n,0.858517378027,1
angle,4,41,8,0,0.6,6,0.0,equ,m,1.28186904396,1
angle,4,42,8,270,0.2,6,1.5,comp,up,1.02311295498,1
angle,4,43,8,270,0.2,6,1.0,comp,up,1.01138054889,1
angle,4,44,8,180,0.2,6,-0.5,equ,n,0.870277764044,1
angle,4,45,8,180,0.0,6,-2.0,equ,n,0.95257056979,1
angle,4,46,8,180,0.8,6,2.0,comp,left,0.71739734528,1
angle,4,47,8,270,0.6,6,-1.0,comp,down,0.964335938533,1
angle,4,48,8,180,0.2,6,2.0,comp,left,1.42301514021,1
angle,4,49,8,90,0.8,6,1.5,comp,down,1.29363326285,1
angle,4,50,8,90,0.4,6,-0.5,comp,up,0.882020902158,1
angle,4,51,8,90,0.6,6,1.0,equ,m,0.823207856764,1
angle,4,52,8,270,0.4,6,1.0,comp,up,0.987859393571,1
angle,4,53,8,0,0.6,6,1.0,comp,right,0.670331654154,1
angle,4,54,8,0,0.0,6,2.0,comp,right,0.658592348907,1
angle,4,55,8,90,0.4,6,1.0,equ,m,0.787946246339,1
angle,4,56,8,0,0.4,6,1.0,comp,right,0.670312106532,1
angle,4,57,8,180,0.6,6,1.0,comp,left,1.09370401757,1
angle,4,58,8,90,0.8,6,-2.0,equ,n,0.940818616082,1
angle,4,59,8,270,0.8,6,2.0,equ,n,0.858500130125,1
angle,4,60,8,0,0.6,6,1.0,equ,m,1.88166176251,1
angle,4,61,8,90,0.8,6,-2.0,comp,up,1.08215635568,1
angle,4,62,8,90,0.0,6,0.0,comp,up,1.64643871073,1
angle,4,63,8,270,0.8,6,0.0,equ,m,0.764434673189,1
angle,4,64,8,270,0.2,6,-1.5,equ,n,0.646815098276,1
angle,4,65,8,270,0.6,6,1.5,equ,n,0.905604149922,1
angle,4,66,8,180,0.0,6,-0.5,comp,right,0.740892437102,1
angle,4,67,8,0,0.4,6,0.5,comp,left,1.71700102683,1
angle,4,68,8,90,0.8,6,0.0,equ,m,0.87021183873,1
angle,4,69,8,270,0.6,6,-2.0,comp,down,1.08194593128,1
angle,4,70,8,270,0.4,6,-1.0,comp,down,0.834994306277,1
angle,4,71,8,0,0.8,6,-2.0,comp,left,0.71739734528,1
angle,4,72,8,270,0.0,6,0.5,comp,down,1.04670808463,1
angle,4,73,8,270,0.2,6,1.5,equ,m,0.78795199564,1
angle,4,74,8,0,0.8,6,0.5,equ,m,1.03490745351,1
angle,4,75,8,180,0.4,6,1.5,equ,m,0.787965410675,1
angle,4,76,8,0,0.2,6,-2.0,equ,n,0.611551954705,1
angle,4,77,8,0,0.2,6,-0.5,equ,n,0.658571268139,1
angle,4,78,8,90,0.4,6,2.0,comp,down,0.776170528855,1
angle,4,79,8,0,0.4,6,0.0,comp,left,0.752681186334,1
angle,4,80,8,0,0.8,6,-1.0,equ,n,1.75229406676,1
angle,4,81,8,270,0.8,6,1.5,equ,n,0.917277529855,1
angle,4,82,8,270,0.6,6,0.0,comp,down,2.41084655385,1
angle,4,83,8,90,0.2,6,1.0,comp,down,1.12898824191,1
angle,4,84,8,0,0.6,6,-0.5,equ,n,1.59939486695,1
angle,4,85,8,270,0.0,6,0.5,equ,m,2.21092267459,1
angle,4,86,8,0,0.8,6,-1.0,comp,left,0.68211657052,1
angle,4,87,8,0,0.2,6,0.0,comp,left,1.04664292589,1
angle,4,88,8,90,0.0,6,-2.0,equ,n,0.787944329905,1
angle,4,89,8,270,0.0,6,0.0,equ,n,1.03493620001,1
angle,4,90,8,0,0.0,6,1.5,comp,right,0.682063676953,1
angle,4,91,8,270,0.4,6,-1.5,comp,down,0.787969243542,1
angle,4,92,8,270,0.4,6,-2.0,comp,down,0.61153279037,1
angle,4,93,8,90,0.6,6,-1.0,equ,n,0.799721963823,1
angle,4,94,8,180,0.4,6,1.0,equ,m,0.776155197387,1
angle,4,95,8,0,0.6,6,-1.5,comp,left,0.71739849514,1
angle,4,96,8,180,0.2,6,-1.5,equ,n,0.91728634545,1
angle,4,97,8,90,0.2,6,-0.5,equ,m,0.940829731397,1
angle,4,98,8,0,0.8,6,-2.0,equ,n,1.11724931995,1
angle,4,99,8,270,0.6,6,2.0,equ,n,0.799685168299,1
angle,4,100,8,180,0.0,6,0.5,equ,m,0.776180494309,1
angle,4,101,8,0,0.8,6,1.0,equ,m,1.28167893376,1
angle,4,102,8,0,0.4,6,-2.0,comp,left,0.646811648697,1
angle,4,103,8,270,0.4,6,1.5,comp,up,1.02311410484,1
angle,4,104,8,270,0.8,6,1.0,comp,up,0.717374348077,1
angle,4,105,8,270,0.0,6,-1.5,comp,down,0.764426240881,1
angle,4,106,8,90,0.8,6,0.5,comp,down,0.917277146569,1
angle,4,107,8,180,0.2,6,1.5,comp,left,0.787891436341,1
angle,4,108,8,0,0.0,6,-2.0,comp,left,0.905495679784,1
angle,4,109,8,270,0.4,6,1.0,equ,m,0.834949461731,1
angle,4,110,8,0,0.2,6,-1.5,comp,left,0.764413209134,1
angle,4,111,8,90,0.6,6,0.0,comp,up,1.05844432358,1
angle,4,112,8,180,0.2,6,-1.0,comp,right,0.623318090022,1
angle,4,113,8,270,0.6,6,-0.5,comp,down,0.811439038441,1
angle,4,114,8,90,0.0,6,-0.5,equ,n,2.17563653382,1
angle,4,115,8,270,0.2,6,2.0,comp,up,0.799708165501,1
angle,4,116,8,0,0.4,6,0.5,equ,m,0.729155048289,1
angle,4,117,8,90,0.0,6,0.0,equ,m,0.94082934811,1
angle,4,118,8,90,0.6,6,-2.0,comp,up,0.882017069291,1
angle,4,119,8,270,0.0,6,-1.5,equ,n,0.764384845917,1
angle,4,120,8,180,0.4,6,-2.0,equ,n,0.682121553246,1
angle,4,121,8,0,0.4,6,-1.5,comp,left,0.893782054746,1
angle,4,122,8,0,0.6,6,-0.5,comp,left,0.834942945858,1
angle,4,123,8,90,0.0,6,0.5,comp,up,0.729111353603,1
angle,4,124,8,270,0.2,6,1.0,equ,m,0.823222804946,1
angle,4,125,8,90,0.8,6,2.0,comp,down,0.846750859425,1
angle,4,126,8,180,0.8,6,2.0,equ,m,1.99921924498,1
angle,4,127,8,180,0.2,6,-0.5,comp,right,0.846764657746,1
angle,4,128,8,90,0.2,6,-1.5,comp,up,0.62330314184,1
angle,4,129,8,90,0.6,6,2.0,comp,up,1.45829284868,1
angle,4,130,8,0,0.4,6,1.5,comp,right,1.23483976508,1
angle,4,131,8,0,0.2,6,-1.0,comp,left,0.693881172689,1
angle,4,132,8,270,0.4,6,1.5,equ,m,0.646812031983,1
angle,4,133,8,90,0.0,6,1.5,comp,down,0.564707420009,1
angle,4,134,8,0,0.6,6,-1.5,equ,n,1.83457805691,1
angle,4,135,8,0,0.6,6,0.5,equ,m,0.623289726805,1
angle,4,136,8,0,0.2,6,1.5,equ,n,1.07020585946,1
angle,4,137,8,90,0.4,6,0.5,equ,m,0.846765424319,1
angle,4,138,8,270,0.0,6,1.0,comp,up,0.952591650559,1
angle,4,139,8,180,0.0,6,-1.5,equ,n,0.987840229236,1
angle,4,140,8,270,0.0,6,-1.0,equ,n,1.21127108221,1
angle,4,141,8,180,0.0,6,0.0,comp,right,1.09369903485,1
angle,4,142,8,90,0.4,6,0.0,comp,up,0.705621244509,1
angle,4,143,8,0,0.2,6,-1.5,equ,n,1.07016063163,1
angle,4,144,8,180,0.2,6,0.5,comp,right,2.88127732595,1
angle,4,145,8,0,0.2,6,0.0,equ,n,1.72877904403,1
angle,4,146,8,180,0.6,6,2.0,equ,n,2.01103329113,1
angle,4,147,8,0,0.4,6,-1.5,equ,n,0.858495147399,1
angle,4,148,8,180,0.6,6,-0.5,comp,left,1.37593258447,1
angle,4,149,8,0,0.8,6,0.5,comp,right,1.04669083673,1
angle,4,150,8,180,0.4,6,0.0,comp,right,0.882019752297,1
angle,4,151,8,0,0.6,6,-2.0,equ,n,0.834954061173,1
angle,4,152,8,180,0.4,6,0.5,comp,right,0.787935514311,1
angle,4,153,8,270,0.0,6,-1.0,comp,down,0.75267812004,1
angle,4,154,8,0,0.0,6,-1.0,equ,n,1.27011172424,1
angle,4,155,8,270,0.0,6,-0.5,comp,down,0.705587131992,1
angle,4,156,8,180,0.6,6,-0.5,equ,m,0.623297392539,1
angle,4,157,8,90,0.6,6,-1.5,comp,up,2.24619118418,1
angle,4,158,8,180,0.6,6,-1.0,equ,n,0.846734378096,1
angle,4,159,8,270,0.8,6,-2.0,comp,down,0.646810498836,1
angle,4,160,8,180,0.4,6,-0.5,equ,m,0.611535856663,1
angle,4,161,8,0,0.4,6,0.0,equ,m,0.599776237221,1
angle,4,162,8,270,0.6,6,-1.5,comp,down,0.752676586892,1
angle,4,163,8,180,0.8,6,1.5,equ,n,1.51705146736,1
angle,4,164,8,90,0.6,6,0.5,equ,m,0.929060529787,1
angle,4,165,8,0,0.4,6,-0.5,equ,m,0.635050496107,1
angle,4,166,8,270,0.4,6,-2.0,equ,n,0.682069426254,1
angle,4,167,8,270,0.8,6,-1.0,comp,down,0.635081159044,1
angle,4,168,8,180,0.2,6,-2.0,equ,n,1.16426326737,1
angle,4,169,8,0,0.8,6,1.5,comp,right,0.611536623236,1
angle,4,170,8,180,0.0,6,1.5,comp,left,0.658593882054,1
angle,4,171,8,90,0.8,6,-1.5,equ,n,1.25834405578,1
angle,4,172,8,270,0.6,6,0.5,equ,m,1.07019436086,1
angle,4,173,8,180,0.8,6,0.0,comp,right,0.870238668799,1
angle,4,174,8,270,0.2,6,2.0,equ,n,0.88202051887,1
angle,4,175,8,270,0.2,6,-1.0,comp,down,0.670346985622,1
angle,4,176,8,90,0.0,6,-1.0,comp,up,1.10544868883,1
angle,4,177,8,0,0.0,6,0.0,equ,m,0.74091696745,1
angle,4,178,8,90,0.2,6,-1.5,equ,n,0.776188926618,1
angle,4,179,8,180,0.8,6,-1.0,equ,n,0.834982807674,1
angle,4,180,8,0,0.0,6,2.0,equ,n,2.54019470198,1
angle,4,181,8,90,0.8,6,1.0,comp,down,1.25833562347,1
angle,4,182,8,0,0.8,6,2.0,equ,n,0.834985107395,1
angle,4,183,8,270,0.4,6,0.5,equ,m,0.917331189994,1
angle,4,184,8,180,0.0,6,-1.0,comp,right,0.670333187301,1
angle,4,185,8,180,0.0,6,0.5,comp,left,1.19954250899,1
angle,4,186,8,0,0.2,6,1.5,comp,right,0.858380161387,1
angle,4,187,8,180,0.2,6,-1.5,comp,right,0.823277998232,1
angle,4,188,8,180,0.0,6,1.0,comp,left,1.01140814553,1
angle,4,189,8,270,0.2,6,-0.5,equ,n,0.917310492512,1
angle,4,190,8,90,0.8,6,2.0,equ,n,1.11723590492,1
angle,4,191,8,270,0.0,6,1.5,equ,m,0.623282827644,1
angle,4,192,8,0,0.4,6,-1.0,equ,n,0.882025501598,1
angle,4,193,8,0,0.8,6,0.0,equ,m,0.6350478131,1
angle,4,194,8,0,0.0,6,1.0,comp,right,0.811450537042,1
angle,4,195,8,90,0.8,6,-1.5,comp,up,1.14077430814,1
angle,4,196,8,180,0.6,6,-2.0,comp,right,0.576343237844,1
angle,4,197,8,270,0.6,6,1.0,comp,up,0.764414358993,1
angle,4,198,8,90,0.2,6,-2.0,comp,up,0.693875806674,1
angle,4,199,8,270,0.6,6,-1.5,equ,n,0.823225487952,1
angle,4,200,8,0,0.2,6,-2.0,comp,left,0.717349817728,1
angle,4,201,8,270,0.6,6,2.0,comp,up,0.740964111716,1
angle,4,202,8,90,0.0,6,1.0,comp,down,0.987863993012,1
angle,4,203,8,0,0.6,6,2.0,comp,right,0.588007035611,1
angle,4,204,8,180,0.2,6,-1.0,equ,m,0.976115488885,1
angle,4,205,8,90,0.0,6,1.0,equ,m,0.764388295497,1
angle,4,206,8,270,0.2,6,0.0,equ,m,0.787947012913,1
angle,4,207,8,0,0.4,6,1.5,equ,m,0.635030565199,1
angle,4,208,8,270,0.8,6,0.5,equ,n,0.646815481563,1
angle,4,209,8,0,0.4,6,-1.0,comp,left,0.623295092819,1
angle,4,210,8,270,0.4,6,0.0,equ,m,1.05843205841,1
angle,4,211,8,90,0.2,6,0.0,comp,down,1.38769412034,1
angle,4,212,8,180,0.8,6,0.5,comp,left,0.893802368942,1
angle,4,213,8,180,0.2,6,-2.0,comp,right,0.752806904374,1
angle,4,214,8,180,0.4,6,0.0,equ,m,0.823218972078,1
angle,4,215,8,0,0.6,6,-1.0,equ,n,1.28186827739,1
angle,4,216,8,180,0.8,6,0.5,equ,m,0.8114949983,1
angle,4,217,8,180,0.4,6,2.0,comp,left,0.682123086393,1
angle,4,218,8,0,0.6,6,1.5,comp,right,0.670349285343,1
angle,4,219,8,180,0.0,6,-1.0,equ,n,0.870277380756,1
angle,4,220,8,90,0.2,6,-0.5,comp,up,0.764293623681,1
angle,4,221,8,180,0.2,6,1.0,comp,left,0.905541674188,1
angle,4,222,8,270,0.2,6,0.5,equ,m,0.893791636914,1
angle,4,223,8,0,0.6,6,2.0,equ,n,0.77618739347,1
angle,4,224,8,180,0.4,6,-1.5,equ,n,1.2230954771,1
angle,4,225,8,0,0.4,6,2.0,comp,right,0.670367683105,1
angle,4,226,8,90,0.2,6,1.5,comp,down,0.870287346211,1
angle,4,227,8,270,0.4,6,0.5,comp,up,4.48067870877,1
angle,4,228,8,0,0.0,6,1.5,equ,n,0.752667771299,1
angle,4,229,8,180,0.8,6,-1.0,comp,right,0.811466635084,1
angle,4,230,8,90,0.0,6,2.0,equ,n,1.21128794682,1
angle,4,231,8,0,0.0,6,-1.5,equ,n,0.834989706836,1
angle,4,232,8,90,0.4,6,-1.0,comp,up,0.658599631355,1
angle,4,233,8,270,0.2,6,-1.0,equ,n,1.01141581127,1
angle,4,234,8,90,0.4,6,-2.0,equ,n,0.96434207112,1
angle,4,235,8,180,0.8,6,-1.5,equ,n,0.846717130195,1
angle,4,236,8,90,0.2,6,0.0,equ,m,0.752647840391,1
angle,4,237,8,270,0.4,6,2.0,comp,up,1.0466686061,1
angle,4,238,8,270,0.6,6,0.5,comp,up,0.623321539601,1
angle,4,239,8,270,0.0,6,0.0,comp,down,0.987888906648,1
angle,4,240,8,0,0.8,6,0.0,comp,left,1.08197161149,1
angle,4,241,8,0,0.2,6,0.5,comp,right,0.599768954773,1
angle,4,242,8,90,0.8,6,1.0,equ,m,0.787904468089,1
angle,4,243,8,90,0.0,6,2.0,comp,down,0.658562069258,1
angle,4,244,8,270,0.4,6,-0.5,equ,n,0.729352824229,1
angle,4,245,8,0,0.8,6,-0.5,comp,left,0.870262049289,1
angle,4,246,8,270,0.4,6,0.0,comp,down,0.999645843083,1
angle,4,247,8,0,0.6,6,0.0,comp,left,0.846732078376,1
angle,4,248,8,0,0.6,6,-2.0,comp,left,0.69382981227,1
angle,4,249,8,90,0.4,6,0.0,equ,m,0.987860543431,1
angle,4,250,8,180,0.2,6,1.5,equ,n,0.693859325346,1
angle,4,251,8,180,0.8,6,1.5,comp,left,0.682091656883,1
angle,4,252,8,180,0.8,6,-2.0,equ,n,0.84673859425,1
angle,4,253,8,90,0.4,6,0.5,comp,down,1.63469978877,1
angle,4,254,8,180,0.4,6,2.0,equ,n,0.693869674087,1
angle,4,255,8,180,0.0,6,1.0,equ,n,0.823250018301,1
angle,4,256,8,180,0.8,6,-0.5,equ,n,0.929092342583,1
angle,4,257,8,0,0.2,6,1.0,equ,m,0.97610437357,1
angle,4,258,8,90,0.2,6,-1.0,comp,up,0.870282363483,1
angle,4,259,8,90,0.4,6,1.5,equ,m,0.693883472409,1
angle,4,260,8,90,0.2,6,-2.0,equ,n,1.36419442908,1
angle,4,261,8,90,0.8,6,1.5,equ,m,0.823225487952,1
angle,4,262,8,0,0.0,6,-0.5,comp,left,1.07018784498,1
angle,4,263,8,270,0.8,6,-1.0,equ,n,0.776334192279,1
angle,4,264,8,180,0.0,6,2.0,equ,n,0.670315172826,1
angle,4,265,8,0,0.8,6,1.5,equ,n,1.24658328648,1
angle,4,266,8,90,0.6,6,-0.5,comp,up,0.88201706929,1
angle,4,267,8,270,0.8,6,-2.0,equ,n,0.670348902057,1
angle,4,268,8,90,0.0,6,-1.0,equ,n,1.71698684522,1
angle,4,269,8,180,0.6,6,0.0,equ,m,0.752632508921,1
angle,4,270,8,0,0.8,6,-1.5,comp,left,0.717360549756,1
angle,4,271,8,270,0.6,6,1.0,equ,m,0.82320249075,1
angle,4,272,8,90,0.4,6,1.0,comp,down,0.764439655915,1
angle,4,273,8,180,0.4,6,-2.0,comp,right,0.811460885783,1
angle,4,274,8,270,0.0,6,1.5,comp,up,0.764394428084,1
angle,4,275,8,0,0.0,6,0.5,equ,m,0.905541290902,1
angle,4,276,8,270,0.8,6,0.5,comp,down,0.952577468951,1
angle,4,277,8,270,0.6,6,0.0,equ,n,2.04626692163,1
angle,4,278,8,90,0.4,6,2.0,equ,n,2.08159177436,1
angle,4,279,8,270,0.2,6,-0.5,comp,down,0.811481583266,1
angle,4,280,8,0,0.8,6,-0.5,equ,m,1.1289828759,1
angle,4,281,8,0,0.0,6,-1.0,comp,left,0.623300458833,1
angle,4,282,8,90,0.4,6,-0.5,equ,m,0.79969551704,1
angle,4,283,8,180,0.4,6,0.5,equ,m,0.799699733195,1
angle,4,284,8,90,0.2,6,0.5,equ,m,0.823248101869,1
angle,4,285,8,270,0.0,6,1.0,equ,m,0.693826745976,1
angle,4,286,8,90,0.0,6,1.5,equ,n,0.740926549619,1
angle,4,287,8,180,0.4,6,-1.0,equ,n,0.952554088462,1
angle,4,288,8,180,0.6,6,2.0,comp,left,0.740897036542,1
angle,4,289,8,90,0.6,6,0.0,equ,n,0.999597548958,1
angle,4,290,8,180,0.4,6,-1.0,comp,right,0.646789418068,1
angle,4,291,8,180,0.0,6,0.0,equ,m,0.858485181944,1
angle,4,292,8,90,0.6,6,1.0,comp,down,3.24586194089,1
angle,4,293,8,270,0.0,6,-2.0,equ,n,0.811436738721,1
angle,4,294,8,90,0.2,6,2.0,comp,down,0.752629442628,1
angle,4,295,8,90,0.6,6,-0.5,equ,m,1.01141619455,1
angle,4,296,8,90,0.6,6,1.5,equ,m,1.25838008473,1
angle,4,297,8,270,0.8,6,-0.5,equ,n,0.729142016541,1
angle,4,298,8,0,0.8,6,1.0,comp,right,0.870265882156,1
angle,4,299,8,0,0.6,6,0.5,comp,right,0.635029798625,1
angle,4,300,8,0,0.2,6,2.0,comp,right,0.576227101973,1
angle,4,301,8,270,0.8,6,2.0,comp,up,1.11718186149,1
angle,4,302,8,180,0.6,6,-1.5,comp,right,1.05841251078,1
angle,4,303,8,270,0.8,6,0.0,comp,down,0.787935131025,1
angle,4,304,8,90,0.8,6,-1.0,comp,up,0.893794319921,1
angle,4,305,8,90,0.0,6,0.5,equ,m,0.964364301749,1
angle,4,306,8,90,0.4,6,-2.0,comp,up,0.952649143565,1
angle,4,307,8,270,0.8,6,-1.5,equ,n,1.05846195477,1
angle,4,308,8,0,0.0,6,0.0,comp,right,0.893804285375,1
angle,4,309,8,90,0.4,6,-1.5,comp,up,0.882024735024,1
angle,4,310,8,0,0.2,6,-0.5,comp,left,1.63468714031,1
angle,4,311,8,90,0.8,6,0.0,comp,down,1.10546440359,1
angle,4,312,8,270,0.8,6,1.5,comp,up,0.682044512619,1
angle,4,313,8,270,0.0,6,-0.5,equ,m,1.47004825196,1
angle,4,314,8,0,0.8,6,-1.5,equ,n,0.552715528822,1
angle,4,315,8,180,0.8,6,-2.0,comp,right,0.92905784678,1
angle,4,316,8,180,0.8,6,1.0,equ,n,1.37598279503,1
angle,4,317,8,90,0.2,6,1.0,equ,m,1.07016868065,1
angle,4,318,8,270,0.2,6,-1.5,comp,down,0.764392128364,1
angle,4,319,8,180,0.0,6,-0.5,equ,m,0.776160946688,1
angle,4,320,8,0,0.2,6,2.0,equ,n,0.787935131024,1
angle,4,321,8,180,0.6,6,-1.5,equ,n,0.7291374171,1
angle,4,322,8,180,0.4,6,1.5,comp,left,0.740893970248,1
angle,4,323,8,90,0.2,6,-1.0,equ,n,1.4700501684,1
angle,4,324,8,180,0.6,6,0.5,equ,n,0.88203929992,1
angle,4,325,8,270,0.2,6,-2.0,comp,down,0.646817397997,1
angle,4,326,8,180,0.2,6,0.5,equ,n,0.834966326347,1
angle,4,327,8,270,0.0,6,2.0,comp,up,0.658570118278,1
angle,4,328,8,90,0.6,6,0.5,comp,up,1.14072754716,1
angle,4,329,8,90,0.8,6,-0.5,comp,up,0.705619711362,1
angle,4,330,8,180,0.0,6,-2.0,comp,right,0.646842311633,1
angle,4,331,8,180,0.6,6,0.5,comp,left,0.987884307207,1
angle,4,332,8,90,0.6,6,-1.5,equ,n,0.82319329187,1
angle,4,333,8,270,0.2,6,-2.0,equ,n,0.5762320847,1
angle,4,334,8,270,0.2,6,0.0,comp,down,1.03493236714,1
angle,4,335,8,270,0.6,6,-2.0,equ,n,1.17600640549,1
angle,4,336,8,270,0.6,6,1.5,comp,up,1.23482251717,1
angle,4,337,8,0,0.2,6,1.0,comp,right,0.79972579669,1
angle,4,338,8,90,0.2,6,0.5,comp,down,0.905565437964,1
angle,4,339,8,270,0.2,6,0.5,comp,down,0.846736294529,1
angle,4,340,8,270,0.8,6,1.0,equ,m,0.764410526126,1
angle,4,341,8,0,0.4,6,-0.5,comp,left,1.7287510641,1
angle,4,342,8,180,0.8,6,1.0,comp,left,0.846935603618,1
angle,4,343,8,180,0.2,6,0.0,comp,right,0.717383163672,1
angle,4,344,8,90,0.6,6,2.0,equ,n,1.54059523659,1
angle,4,345,8,180,0.4,6,-0.5,comp,right,0.787918649696,1
angle,4,346,8,0,0.4,6,2.0,equ,n,1.15251208024,1
angle,4,347,8,90,0.6,6,-1.0,comp,up,0.764390595217,1
angle,4,348,8,180,0.8,6,-0.5,comp,right,0.846755842152,1
angle,4,349,8,180,0.6,6,1.5,equ,n,0.929056313633,1
angle,4,350,8,270,0.4,6,-1.0,equ,n,0.858500130125,1
angle,4,351,8,90,0.2,6,1.5,equ,m,0.68208974045,1
angle,4,352,8,0,0.0,6,-2.0,equ,n,1.09369098582,1
angle,4,353,8,0,0.2,6,0.5,equ,m,0.646811648696,1
angle,4,354,8,270,0.4,6,2.0,equ,m,0.82307562285,1
angle,4,355,8,90,0.0,6,-2.0,comp,up,0.811455903056,1
angle,4,356,8,270,0.4,6,-0.5,comp,down,0.858498213693,1
angle,4,357,8,90,0.4,6,1.5,comp,down,0.799682485292,1
angle,4,358,8,180,0.8,6,0.0,equ,m,1.01138629819,1
angle,4,359,8,90,0.2,6,2.0,equ,n,0.811403776064,1
angle,4,360,8,0,0.4,6,1.0,equ,n,1.1525362273,1
angle,5,1,8,270,0.0,6,-1.0,equ,n,1.72873994879,1
angle,5,2,8,90,0.0,6,-1.5,comp,up,0.729171912903,1
angle,5,3,8,90,0.4,6,1.5,comp,down,0.693849359893,1
angle,5,4,8,90,0.6,6,-0.5,equ,m,0.776192376197,1
angle,5,5,8,270,0.2,6,-0.5,comp,down,0.787911367249,1
angle,5,6,8,90,0.0,6,1.0,comp,down,0.764438889342,1
angle,5,7,8,270,0.6,6,-2.0,equ,n,0.929072028388,1
angle,5,8,8,0,0.2,6,-2.0,comp,left,0.729129368079,1
angle,5,9,8,0,0.8,6,-1.0,comp,left,0.764385612491,1
angle,5,10,8,270,0.2,6,0.0,comp,down,0.729124002065,1
angle,5,11,8,0,0.0,6,1.5,equ,m,1.03489020561,1
angle,5,12,8,90,0.4,6,0.0,equ,m,1.1289368815,1
angle,5,13,8,0,0.4,6,-1.0,equ,m,0.917298610624,1
angle,5,14,8,270,0.8,6,-2.0,equ,n,0.799670603405,1
angle,5,15,8,180,0.6,6,1.0,comp,left,0.776168229135,1
angle,5,16,8,180,0.2,6,0.0,equ,n,1.48175919399,1
angle,5,17,8,180,0.2,6,-2.0,comp,right,0.670304057511,1
angle,5,18,8,270,0.2,6,1.5,equ,n,1.04665557435,1
angle,5,19,8,0,0.2,6,-2.0,equ,n,0.693847826745,1
angle,5,20,8,0,0.6,6,1.5,equ,n,1.0466655398,1
angle,5,21,8,90,0.4,6,-2.0,equ,n,0.799668686971,1
angle,5,22,8,90,0.4,6,-1.0,equ,n,0.870222570758,1
angle,5,23,8,0,0.8,6,1.5,comp,right,0.611534323516,1
angle,5,24,8,90,0.8,6,-2.0,equ,n,0.846716746908,1
angle,5,25,8,180,0.2,6,2.0,comp,left,0.693821763249,1
angle,5,26,8,0,0.8,6,-2.0,equ,n,1.37592606859,1
angle,5,27,8,180,0.4,6,-2.0,equ,n,1.09370516743,1
angle,5,28,8,180,0.4,6,-1.0,comp,left,0.98787817462,1
angle,5,29,8,180,0.0,6,-1.0,equ,n,0.952544123008,1
angle,5,30,8,270,0.6,6,1.5,comp,up,0.823219355365,1
angle,5,31,8,270,0.0,6,0.5,equ,m,0.729158881156,1
angle,5,32,8,90,0.2,6,0.5,comp,down,0.929018751535,1
angle,5,33,8,90,0.0,6,1.5,comp,down,0.705653823878,1
angle,5,34,8,180,0.2,6,-1.0,comp,right,0.78792631543,1
angle,5,35,8,0,0.4,6,-2.0,comp,left,0.717207235073,1
angle,5,36,8,0,0.8,6,0.0,comp,right,0.85851124544,1
angle,5,37,8,0,0.6,6,1.5,comp,right,0.682115803946,1
angle,5,38,8,0,0.6,6,-0.5,equ,m,0.705627760382,1
angle,5,39,8,180,0.2,6,0.0,comp,left,0.929026033983,1
angle,5,40,8,180,0.8,6,1.0,comp,left,0.70559671416,1
angle,5,41,8,90,0.2,6,1.0,equ,n,0.764390595217,1
angle,5,42,8,180,0.2,6,-1.5,equ,n,0.834977058374,1
angle,5,43,8,270,0.2,6,2.0,equ,n,0.881991389081,1
angle,5,44,8,0,0.2,6,1.5,equ,n,0.846719046628,1
angle,5,45,8,0,0.2,6,-0.5,comp,right,1.41123750629,1
angle,5,46,8,0,0.6,6,-1.0,equ,n,1.21127223207,1
angle,5,47,8,180,0.4,6,1.0,comp,left,0.740905085563,1
angle,5,48,8,270,0.4,6,-1.5,equ,n,0.811484649559,1
angle,5,49,8,270,0.4,6,-1.0,comp,down,0.90549376335,1
angle,5,50,8,0,0.4,6,0.5,equ,m,1.18781240262,1
angle,5,51,8,270,0.2,6,0.0,equ,n,1.30540246446,1
angle,5,52,8,180,0.8,6,0.5,comp,left,0.964341687833,1
angle,5,53,8,270,0.2,6,1.5,comp,up,0.952557154756,1
angle,5,54,8,180,0.4,6,1.5,equ,n,1.12894876338,1
angle,5,55,8,90,0.4,6,-1.5,comp,up,0.811420257392,1
angle,5,56,8,90,0.2,6,2.0,comp,down,0.682120403387,1
angle,5,57,8,90,0.8,6,2.0,comp,down,0.682076708701,1
angle,5,58,8,270,0.2,6,-0.5,equ,n,0.75261641088,1
angle,5,59,8,0,0.8,6,0.0,equ,m,0.834977824948,1
angle,5,60,8,270,0.6,6,0.5,comp,down,1.08196317918,1
angle,5,61,8,270,0.0,6,-2.0,equ,n,0.870260899429,1
angle,5,62,8,0,0.0,6,-1.5,comp,left,0.776164779555,1
angle,5,63,8,0,0.4,6,1.0,comp,right,0.62325063156,1
angle,5,64,8,0,0.0,6,-1.0,equ,n,0.799667920398,1
angle,5,65,8,270,0.0,6,1.0,comp,up,1.89339225217,1
angle,5,66,8,270,0.8,6,2.0,comp,up,0.740919267171,1
angle,5,67,8,90,0.6,6,-2.0,comp,up,0.764393278225,1
angle,5,68,8,270,0.4,6,1.0,equ,m,0.776160946687,1
angle,5,69,8,0,0.6,6,0.0,comp,left,1.15250058164,1
angle,5,70,8,0,0.0,6,0.5,comp,right,0.823194825016,1
angle,5,71,8,270,0.6,6,-2.0,comp,down,0.776150981234,1
angle,5,72,8,270,0.2,6,2.0,comp,up,0.764476068153,1
angle,5,73,8,180,0.0,6,-1.0,comp,left,1.05839947904,1
angle,5,74,8,0,0.4,6,1.0,equ,m,0.635038230933,1
angle,5,75,8,90,0.8,6,-1.0,equ,n,0.999603298258,1
angle,5,76,8,0,0.0,6,1.5,comp,right,0.705614345348,1
angle,5,77,8,90,0.6,6,1.5,equ,n,0.917273696988,1
angle,5,78,8,270,0.2,6,1.0,equ,m,0.858470233763,1
angle,5,79,8,90,0.6,6,-2.0,equ,n,0.776164012981,1
angle,5,80,8,180,0.2,6,0.5,equ,m,0.823213606065,1
angle,5,81,8,90,0.2,6,-1.5,comp,up,0.799710848509,1
angle,5,82,8,90,0.0,6,0.5,equ,m,0.834960960333,1
angle,5,83,8,270,0.6,6,-0.5,comp,down,0.976073327346,1
angle,5,84,8,180,0.6,6,2.0,comp,left,0.611553871138,1
angle,5,85,8,90,0.4,6,2.0,comp,down,0.799651822355,1
angle,5,86,8,270,0.6,6,2.0,comp,up,0.787966177248,1
angle,5,87,8,90,0.2,6,0.5,equ,m,1.71700485969,1
angle,5,88,8,0,0.2,6,0.0,comp,right,0.811430606133,1
angle,5,89,8,90,0.8,6,0.0,equ,m,0.929060913073,1
angle,5,90,8,180,0.6,6,0.0,comp,left,1.17602863612,1
angle,5,91,8,270,0.4,6,-0.5,equ,m,0.964340154686,1
angle,5,92,8,0,0.6,6,-0.5,comp,left,0.799726179976,1
angle,5,93,8,270,0.0,6,0.5,comp,down,2.25796881809,1
angle,5,94,8,270,0.0,6,-0.5,comp,down,0.69389152143,1
angle,5,95,8,0,0.0,6,1.0,equ,m,0.740892053815,1
angle,5,96,8,270,0.6,6,1.0,comp,up,0.834957510752,1
angle,5,97,8,270,0.6,6,-1.0,comp,down,0.705631976536,1
angle,5,98,8,0,0.0,6,-0.5,equ,m,0.740880938501,1
angle,5,99,8,180,0.2,6,2.0,equ,n,0.787937047458,1
angle,5,100,8,90,0.2,6,0.0,equ,n,0.893768256425,1
angle,5,101,8,90,0.6,6,-1.5,equ,n,0.834978208234,1
angle,5,102,8,270,0.2,6,1.0,comp,down,1.9404433784,1
angle,5,103,8,90,0.6,6,0.0,equ,m,2.30498084908,1
angle,5,104,8,90,0.4,6,1.5,equ,n,0.62330084212,1
angle,5,105,8,270,0.0,6,-1.0,comp,down,0.74087058976,1
angle,5,106,8,180,0.6,6,0.0,equ,n,1.24658405305,1
angle,5,107,8,180,0.8,6,2.0,equ,n,0.882025884885,1
angle,5,108,8,270,0.4,6,1.5,equ,m,0.835008487884,1
angle,5,109,8,0,0.4,6,1.5,equ,m,0.976133886646,1
angle,5,110,8,180,0.0,6,0.0,comp,left,1.0113774826,1
angle,5,111,8,270,0.2,6,-1.0,equ,n,0.846733228236,1
angle,5,112,8,90,0.6,6,-1.5,comp,up,0.858462184742,1
angle,5,113,8,270,0.6,6,-1.5,equ,n,0.752665471578,1
angle,5,114,8,270,0.2,6,-2.0,equ,n,0.752680803047,1
angle,5,115,8,180,0.4,6,1.5,comp,left,0.670305590658,1
angle,5,116,8,90,0.0,6,-1.0,comp,up,0.81146126907,1
angle,5,117,8,270,0.0,6,0.0,equ,n,1.16426556709,1
angle,5,118,8,180,0.6,6,-1.0,comp,right,0.717411526887,1
angle,5,119,8,180,0.6,6,-0.5,equ,n,0.917318541533,1
angle,5,120,8,180,0.6,6,2.0,equ,n,0.670333570588,1
angle,5,121,8,90,0.0,6,-1.5,equ,n,0.61151055974,1
angle,5,122,8,0,0.8,6,0.5,comp,right,0.693850509752,1
angle,5,123,8,180,0.0,6,-0.5,equ,n,0.893770172858,1
angle,5,124,8,180,0.6,6,-1.5,comp,right,0.646808965689,1
angle,5,125,8,270,0.0,6,-1.5,equ,n,0.787914433542,1
angle,5,126,8,90,0.0,6,-2.0,equ,n,0.929080843982,1
angle,5,127,8,270,0.8,6,0.5,equ,m,0.717399261713,1
angle,5,128,8,90,0.8,6,-0.5,equ,n,0.799698583334,1
angle,5,129,8,0,0.6,6,0.0,equ,n,0.999613263713,1
angle,5,130,8,270,0.2,6,-1.0,comp,down,0.693868524228,1
angle,5,131,8,90,0.2,6,2.0,equ,m,1.32891058803,1
angle,5,132,8,90,0.4,6,1.0,comp,down,0.611538922957,1
angle,5,133,8,180,0.0,6,0.5,comp,right,0.987836396369,1
angle,5,134,8,180,0.0,6,2.0,comp,left,0.705635426117,1
angle,5,135,8,0,0.4,6,-1.0,comp,left,0.752663555145,1
angle,5,136,8,90,0.2,6,-1.0,equ,n,0.893673584608,1
angle,5,137,8,270,0.2,6,0.5,equ,m,0.882035467052,1
angle,5,138,8,90,0.6,6,0.5,comp,down,0.623241049392,1
angle,5,139,8,90,0.2,6,1.0,comp,down,0.682087824016,1
angle,5,140,8,180,0.0,6,2.0,equ,n,1.41126088678,1
angle,5,141,8,270,0.4,6,0.5,equ,m,0.835017303478,1
angle,5,142,8,180,0.0,6,1.0,equ,m,1.12898479233,1
angle,5,143,8,90,0.4,6,-2.0,comp,up,0.799726179976,1
angle,5,144,8,90,0.2,6,1.5,equ,m,2.11684456919,1
angle,5,145,8,0,0.4,6,-0.5,comp,left,1.17605163332,1
angle,5,146,8,180,0.8,6,0.0,equ,m,0.776125684311,1
angle,5,147,8,90,0.0,6,0.0,equ,m,0.799723880256,1
angle,5,148,8,180,0.8,6,1.5,comp,left,0.646793250934,1
angle,5,149,8,0,0.8,6,-0.5,equ,n,1.99924530848,1
angle,5,150,8,180,0.4,6,2.0,equ,n,0.811498447881,1
angle,5,151,8,180,0.8,6,0.0,comp,right,1.70500491948,1
angle,5,152,8,90,0.0,6,2.0,equ,n,0.834978208234,1
angle,5,153,8,90,0.6,6,1.0,equ,m,1.09370555072,1
angle,5,154,8,0,0.6,6,0.5,equ,m,0.764416658713,1
angle,5,155,8,90,0.0,6,0.0,comp,up,0.799716981096,1
angle,5,156,8,90,0.6,6,0.0,comp,up,1.82282840292,1
angle,5,157,8,0,0.2,6,-1.0,equ,n,1.99925450736,1
angle,5,158,8,0,0.2,6,0.0,equ,m,0.940845829438,1
angle,5,159,8,90,0.2,6,0.0,comp,up,1.70521342745,1
angle,5,160,8,90,0.6,6,2.0,comp,down,0.576249332602,1
angle,5,161,8,0,0.0,6,0.0,comp,left,2.09331843115,1
angle,5,162,8,90,0.2,6,1.5,comp,down,0.635053179114,1
angle,5,163,8,270,0.6,6,1.5,equ,n,1.66996638192,1
angle,5,164,8,0,0.8,6,-2.0,comp,left,0.635059311701,1
angle,5,165,8,90,0.6,6,0.5,equ,m,1.01142002742,1
angle,5,166,8,0,0.2,6,0.5,comp,left,0.929050564332,1
angle,5,167,8,90,0.4,6,0.0,comp,up,0.976123921192,1
angle,5,168,8,180,0.0,6,-1.5,comp,right,0.752663171858,1
angle,5,169,8,180,0.6,6,-2.0,equ,n,0.929037532584,1
angle,5,170,8,90,0.0,6,-2.0,comp,up,0.76438101305,1
angle,5,171,8,180,0.6,6,-1.5,equ,n,1.09370363429,1
angle,5,172,8,270,0.0,6,-1.5,comp,down,0.752625609762,1
angle,5,173,8,180,0.6,6,1.0,equ,n,1.61093984583,1
angle,5,174,8,270,0.8,6,-1.0,equ,n,0.834975525227,1
angle,5,175,8,90,0.2,6,-0.5,equ,n,1.11722325646,1
angle,5,176,8,180,0.4,6,0.5,equ,m,0.635084991911,1
angle,5,177,8,270,0.4,6,0.0,equ,n,0.787929381724,1
angle,5,178,8,180,0.6,6,1.5,equ,n,0.88201246985,1
angle,5,179,8,270,0.2,6,0.5,comp,up,1.01139204749,1
angle,5,180,8,270,0.4,6,-1.0,equ,n,0.77617704473,1
angle,5,181,8,180,0.6,6,1.5,comp,left,0.693882322549,1
angle,5,182,8,0,0.6,6,-1.5,equ,n,1.11721444086,1
angle,5,183,8,270,0.6,6,-1.0,equ,n,0.776161329974,1
angle,5,184,8,90,0.2,6,-0.5,comp,up,0.893780904886,1
angle,5,185,8,270,0.8,6,1.0,equ,m,1.17605316647,1
angle,5,186,8,180,0.2,6,-0.5,comp,right,0.893777072019,1
angle,5,187,8,90,0.4,6,-0.5,comp,up,0.693906469612,1
angle,5,188,8,0,0.2,6,-1.5,comp,left,0.740893586963,1
angle,5,189,8,180,0.8,6,0.5,equ,m,0.940800601606,1
angle,5,190,8,270,0.8,6,2.0,equ,m,0.98784214567,1
angle,5,191,8,270,0.6,6,-1.5,comp,down,0.693852426186,1
angle,5,192,8,0,0.8,6,-1.0,equ,n,1.66997404766,1
angle,5,193,8,0,0.2,6,2.0,comp,right,0.63505011282,1
angle,5,194,8,0,0.8,6,0.5,equ,m,1.99924645833,1
angle,5,195,8,180,0.0,6,0.5,equ,n,0.929040215591,1
angle,5,196,8,270,0.8,6,1.5,comp,up,0.940815933075,1
angle,5,197,8,270,0.4,6,-2.0,equ,n,0.799701266341,1
angle,5,198,8,90,0.0,6,-0.5,equ,n,0.77615136452,1
angle,5,199,8,180,0.8,6,-2.0,comp,right,0.623254847715,1
angle,5,200,8,180,0.6,6,-0.5,comp,right,0.787935131025,1
angle,5,201,8,180,0.4,6,1.0,equ,m,0.729152365281,1
angle,5,202,8,270,0.4,6,-0.5,comp,down,1.2818479632,1
angle,5,203,8,270,0.0,6,2.0,comp,up,0.870236752366,1
angle,5,204,8,0,0.6,6,-2.0,equ,n,0.670332420727,1
angle,5,205,8,0,0.0,6,-2.0,equ,n,0.564396191204,1
angle,5,206,8,180,0.8,6,-0.5,equ,m,1.37597397943,1
angle,5,207,8,180,0.2,6,-2.0,equ,n,0.79965948809,1
angle,5,208,8,0,0.0,6,-1.5,equ,n,0.599780836661,1
angle,5,209,8,270,0.4,6,2.0,equ,n,0.599781219948,1
angle,5,210,8,0,0.8,6,1.0,comp,right,0.658572417999,1
angle,5,211,8,180,0.2,6,-1.0,equ,n,0.729145466121,1
angle,5,212,8,90,0.8,6,1.0,equ,n,0.587998603303,1
angle,5,213,8,180,0.4,6,0.0,equ,m,2.39907390266,1
angle,5,214,8,180,0.0,6,1.5,comp,left,0.611512092887,1
angle,5,215,8,270,0.2,6,-2.0,comp,down,0.917302443491,1
angle,5,216,8,270,0.4,6,-2.0,comp,down,0.635085375197,1
angle,5,217,8,270,0.8,6,0.0,comp,down,1.12897559345,1
angle,5,218,8,0,0.6,6,-1.0,comp,left,0.823227021099,1
angle,5,219,8,90,0.8,6,1.5,comp,down,0.705640408844,1
angle,5,220,8,90,0.6,6,1.5,comp,down,0.752641707802,1
angle,5,221,8,270,0.8,6,-0.5,comp,down,0.635052412541,1
angle,5,222,8,180,0.0,6,-2.0,comp,right,0.658552103803,1
angle,5,223,8,0,0.2,6,-1.0,comp,left,0.976070644339,1
angle,5,224,8,180,0.4,6,-2.0,comp,right,0.799710848509,1
angle,5,225,8,0,0.4,6,2.0,comp,right,0.611563070019,1
angle,5,226,8,0,0.4,6,-1.5,comp,left,0.64678903478,1
angle,5,227,8,180,0.8,6,1.5,equ,m,0.646800150095,1
angle,5,228,8,180,0.0,6,-1.5,equ,n,0.599757072885,1
angle,5,229,8,270,0.4,6,-1.5,comp,down,1.01138208204,1
angle,5,230,8,180,0.8,6,-1.5,equ,n,0.729115569758,1
angle,5,231,8,90,0.2,6,-1.0,comp,up,2.05800967646,1
angle,5,232,8,270,0.2,6,-1.5,comp,down,0.693888071849,1
angle,5,233,8,0,0.6,6,2.0,comp,right,0.59977278764,1
angle,5,234,8,270,0.6,6,0.5,equ,m,0.717350584301,1
angle,5,235,8,180,0.2,6,1.5,comp,left,0.552943201126,1
angle,5,236,8,0,0.2,6,2.0,equ,n,1.50532136099,1
angle,5,237,8,0,0.8,6,-1.5,comp,left,0.717359399896,1
angle,5,238,8,90,0.8,6,-2.0,comp,up,0.964366984756,1
angle,5,239,8,90,0.8,6,-1.5,comp,up,0.693862008353,1
angle,5,240,8,90,0.8,6,2.0,equ,m,0.776175511583,1
angle,5,241,8,90,0.0,6,-0.5,comp,up,0.682088973876,1
angle,5,242,8,0,0.0,6,-0.5,comp,left,0.670301374505,1
angle,5,243,8,180,0.2,6,1.5,equ,n,0.964351270001,1
angle,5,244,8,90,0.0,6,0.5,comp,up,0.846945185785,1
angle,5,245,8,0,0.8,6,1.5,equ,n,0.834982041102,1
angle,5,246,8,90,0.2,6,-1.5,equ,n,0.858457585302,1
angle,5,247,8,0,0.4,6,0.0,comp,left,0.870259749568,1
angle,5,248,8,180,0.4,6,-0.5,equ,m,0.893788953907,1
angle,5,249,8,270,0.4,6,0.5,comp,up,1.09370861701,1
angle,5,250,8,180,0.0,6,-2.0,equ,n,0.717380480664,1
angle,5,251,8,90,0.4,6,-0.5,equ,n,1.18776334192,1
angle,5,252,8,0,0.8,6,2.0,equ,n,0.752673903887,1
angle,5,253,8,180,0.4,6,-1.5,comp,right,0.952586284545,1
angle,5,254,8,180,0.4,6,-1.0,equ,n,0.89378167146,1
angle,5,255,8,0,0.4,6,2.0,equ,n,1.16427016653,1
angle,5,256,8,270,0.8,6,-1.5,equ,n,0.881978357333,1
angle,5,257,8,270,0.6,6,-0.5,equ,m,0.98785134455,1
angle,5,258,8,90,0.4,6,1.0,equ,n,0.78795774494,1
angle,5,259,8,270,0.2,6,-1.5,equ,m,0.811481966552,1
angle,5,260,8,90,0.4,6,-1.0,comp,up,0.752629825914,1
angle,5,261,8,0,0.6,6,2.0,equ,n,0.823225104667,1
angle,5,262,8,180,0.2,6,-0.5,equ,n,0.75267697018,1
angle,5,263,8,180,0.2,6,1.0,comp,left,1.15252434541,1
angle,5,264,8,270,0.8,6,1.0,comp,up,0.776175511583,1
angle,5,265,8,180,0.8,6,-1.0,equ,n,1.19954557528,1
angle,5,266,8,90,0.6,6,1.0,comp,up,1.09369941813,1
angle,5,267,8,90,0.4,6,2.0,equ,m,1.09368255352,1
angle,5,268,8,180,0.2,6,1.0,equ,m,0.999596015811,1
angle,5,269,8,0,0.2,6,1.5,comp,right,0.787933214591,1
angle,5,270,8,0,0.4,6,0.0,equ,m,0.71737051521,1
angle,5,271,8,180,0.8,6,-1.0,comp,right,0.799700883054,1
angle,5,272,8,180,0.4,6,-0.5,comp,right,0.752622160181,1
angle,5,273,8,90,0.0,6,-1.0,equ,n,0.893760207405,1
angle,5,274,8,180,0.6,6,-2.0,comp,right,0.623252547995,1
angle,5,275,8,0,0.8,6,-1.5,equ,n,0.823190608862,1
angle,5,276,8,270,0.0,6,-0.5,equ,m,0.787932448017,1
angle,5,277,8,90,0.8,6,1.0,comp,up,0.811479283545,1
angle,5,278,8,180,0.0,6,1.0,comp,left,0.834965559772,1
angle,5,279,8,0,0.8,6,2.0,comp,right,0.658586982893,1
angle,5,280,8,0,0.0,6,1.0,comp,right,0.799716597809,1
angle,5,281,8,270,0.6,6,1.0,equ,m,0.846805286137,1
angle,5,282,8,0,0.0,6,0.0,equ,m,0.823223954806,1
angle,5,283,8,0,0.2,6,1.0,comp,right,0.646769870445,1
angle,5,284,8,270,0.8,6,-0.5,equ,n,1.1995306271,1
angle,5,285,8,0,0.2,6,-1.5,equ,n,0.776177044729,1
angle,5,286,8,0,0.8,6,-0.5,comp,left,0.940838930278,1
angle,5,287,8,0,0.2,6,1.0,equ,m,0.752647457104,1
angle,5,288,8,270,0.8,6,0.5,comp,down,1.27011210753,1
angle,5,289,8,270,0.8,6,1.5,equ,n,1.27011824012,1
angle,5,290,8,270,0.8,6,-2.0,comp,down,0.740895120109,1
angle,5,291,8,270,0.0,6,1.0,equ,m,0.740859857731,1
angle,5,292,8,0,0.0,6,2.0,equ,m,0.858484032084,1
angle,5,293,8,180,0.8,6,1.0,equ,m,0.999694137208,1
angle,5,294,8,90,0.4,6,0.5,equ,m,0.787902551654,1
angle,5,295,8,90,0.6,6,-1.0,equ,n,0.6350478131,1
angle,5,296,8,270,0.0,6,1.5,comp,up,0.834993922989,1
angle,5,297,8,0,0.6,6,1.0,equ,n,0.599750173725,1
angle,5,298,8,0,0.6,6,1.0,comp,right,0.893797002927,1
angle,5,299,8,180,0.0,6,1.5,equ,n,0.95257286951,1
angle,5,300,8,90,0.8,6,0.0,comp,up,3.84560713189,1
angle,5,301,8,90,0.6,6,2.0,equ,m,2.19916688802,1
angle,5,302,8,90,0.8,6,-1.0,comp,up,0.752615261021,1
angle,5,303,8,0,0.6,6,-2.0,comp,left,0.776168995708,1
angle,5,304,8,90,0.8,6,-0.5,comp,up,0.799674436272,1
angle,5,305,8,90,0.4,6,-1.5,equ,n,0.81146126907,1
angle,5,306,8,270,0.0,6,2.0,equ,n,0.835002355297,1
angle,5,307,8,270,0.0,6,0.0,comp,up,1.07015526561,1
angle,5,308,8,90,0.2,6,-2.0,comp,up,0.717334102973,1
angle,5,309,8,270,0.4,6,1.5,comp,up,0.834970159214,1
angle,5,310,8,90,0.6,6,-1.0,comp,up,0.846730161943,1
angle,5,311,8,270,0.0,6,-2.0,comp,down,0.705682570382,1
angle,5,312,8,180,0.6,6,0.5,comp,left,0.870258982995,1
angle,5,313,8,90,0.8,6,0.5,equ,n,2.71660509166,1
angle,5,314,8,0,0.2,6,0.5,equ,m,0.764437356195,1
angle,5,315,8,0,0.6,6,0.5,comp,left,4.26898524461,1
angle,5,316,8,270,0.4,6,1.0,comp,up,1.11725046981,1
angle,5,317,8,270,0.8,6,-1.5,comp,down,0.835177900608,1
angle,5,318,8,180,0.8,6,-1.5,comp,right,0.693893054577,1
angle,5,319,8,180,0.4,6,0.5,comp,right,0.91729324461,1
angle,5,320,8,90,0.8,6,1.5,equ,m,0.882029717752,1
angle,5,321,8,0,0.6,6,-1.5,comp,left,1.05840867792,1
angle,5,322,8,0,0.4,6,-1.5,equ,n,1.05843014197,1
angle,5,323,8,90,0.0,6,1.0,equ,m,1.82282648649,1
angle,5,324,8,0,0.4,6,-0.5,equ,n,1.31713180425,1
angle,5,325,8,180,0.8,6,-0.5,comp,right,0.729133200946,1
angle,5,326,8,90,0.0,6,2.0,comp,down,1.39944224119,1
angle,5,327,8,0,0.4,6,1.5,comp,right,0.77617704473,1
angle,5,328,8,180,0.4,6,-1.5,equ,n,0.799697433474,1
angle,5,329,8,180,0.8,6,2.0,comp,left,2.58725387723,1
angle,5,330,8,90,0.4,6,0.5,comp,down,1.08192408394,1
angle,5,331,8,180,0.2,6,0.5,comp,left,1.03490017106,1
angle,5,332,8,0,0.4,6,0.5,comp,right,1.66995641647,1
angle,5,333,8,270,0.8,6,-1.0,comp,down,0.752660488852,1
angle,5,334,8,0,0.0,6,2.0,comp,right,0.623291643238,1
angle,5,335,8,180,0.0,6,-0.5,comp,right,0.787945479766,1
angle,5,336,8,90,0.0,6,1.5,equ,m,0.787972693121,1
angle,5,337,8,180,0.4,6,2.0,comp,left,0.729114036611,1
angle,5,338,8,90,0.2,6,-2.0,equ,n,1.45824532112,1
angle,5,339,8,180,0.2,6,-1.5,comp,right,0.658578167299,1
angle,5,340,8,180,0.6,6,0.5,equ,n,0.929066662374,1
angle,5,341,8,0,0.4,6,-2.0,equ,n,0.682106988352,1
angle,5,342,8,180,0.0,6,0.0,equ,m,0.635058161842,1
angle,5,343,8,0,0.0,6,-2.0,comp,left,0.599747874005,1
angle,5,344,8,270,0.4,6,2.0,comp,up,0.834942945858,1
angle,5,345,8,0,0.8,6,1.0,equ,m,1.28185716208,1
angle,5,346,8,90,0.8,6,0.5,comp,up,1.01136905029,1
angle,5,347,8,90,0.6,6,-0.5,comp,down,0.776177428015,1
angle,5,348,8,180,0.4,6,0.0,comp,right,3.04592809618,1
angle,5,349,8,270,0.0,6,1.5,equ,m,0.929033699716,1
angle,5,350,8,0,0.0,6,-1.0,comp,left,0.6467798359,1
angle,5,351,8,270,0.6,6,0.0,equ,n,1.05844930631,1
angle,5,352,8,180,0.8,6,-2.0,equ,n,1.09372778135,1
angle,5,353,8,270,0.8,6,0.0,equ,m,0.976099774129,1
angle,5,354,8,180,0.6,6,-1.0,equ,n,1.8581432902,1
angle,5,355,8,0,0.2,6,-0.5,equ,n,1.66995756633,1
angle,5,356,8,270,0.4,6,0.0,comp,down,0.905515993979,1
angle,5,357,8,90,0.8,6,-1.5,equ,n,2.51670305974,1
angle,5,358,8,270,0.6,6,2.0,equ,n,0.882041216353,1
angle,5,359,8,0,0.0,6,0.5,equ,m,1.11721137457,1
angle,5,360,8,270,0.6,6,0.0,comp,down,1.72876332927,1
angle,6,1,8,270,0.0,6,0.0,comp,down,2.9753423996,1
angle,6,2,8,180,0.8,6,-2.0,comp,right,1.25831799228,1
angle,6,3,8,0,0.8,6,-2.0,equ,n,1.32889678971,1
angle,6,4,8,180,0.4,6,0.5,equ,m,0.929049031185,1
angle,6,5,8,0,0.4,6,-2.0,comp,left,0.823122767115,1
angle,6,6,8,180,0.0,6,-1.5,equ,n,0.776183560603,1
angle,6,7,8,180,0.4,6,0.0,equ,m,0.823173744247,1
angle,6,8,8,180,0.0,6,2.0,comp,left,1.24657830375,1
angle,6,9,8,0,0.8,6,-1.0,equ,n,0.799690534312,1
angle,6,10,8,0,0.0,6,-1.5,comp,left,1.09389297792,1
angle,6,11,8,0,0.4,6,-1.0,comp,left,0.823186392709,1
angle,6,12,8,0,0.6,6,-2.0,comp,left,0.764413209134,1
angle,6,13,8,90,0.2,6,-1.0,comp,up,1.24655607312,1
angle,6,14,8,180,0.0,6,-1.0,equ,n,1.1525132301,1
angle,6,15,8,270,0.0,6,-1.0,comp,down,0.929058230067,1
angle,6,16,8,0,0.8,6,-1.5,equ,n,1.4700241049,1
angle,6,17,8,90,0.8,6,-0.5,equ,n,0.752656272698,1
angle,6,18,8,90,0.2,6,-0.5,equ,n,0.811436355434,1
angle,6,19,8,180,0.4,6,-1.5,equ,n,0.69382751255,1
angle,6,20,8,180,0.0,6,-1.5,comp,right,1.22308896123,1
angle,6,21,8,0,0.8,6,1.0,comp,right,1.05844240715,1
angle,6,22,8,180,0.2,6,-1.0,comp,right,1.03488330645,1
angle,6,23,8,180,0.6,6,0.5,comp,left,0.705626610523,1
angle,6,24,8,270,0.2,6,0.5,comp,down,1.08195896302,1
angle,6,25,8,90,0.4,6,1.5,comp,up,1.85814137377,1
angle,6,26,8,0,0.0,6,1.5,comp,right,0.811434055715,1
angle,6,27,8,270,0.0,6,1.5,comp,up,0.940851962026,1
angle,6,28,8,270,0.0,6,-1.0,equ,n,0.893755224677,1
angle,6,29,8,90,0.2,6,-0.5,comp,up,0.89377247258,1
angle,6,30,8,90,0.6,6,2.0,equ,n,1.19952027836,1
angle,6,31,8,180,0.4,6,-0.5,equ,m,0.905510244678,1
angle,6,32,8,180,0.4,6,-0.5,comp,right,2.64604852486,1
angle,6,33,8,0,0.0,6,-1.5,equ,n,2.81068971293,1
angle,6,34,8,270,0.4,6,-1.0,equ,n,1.25833639004,1
angle,6,35,8,0,0.4,6,-2.0,equ,n,0.787945096479,1
angle,6,36,8,270,0.2,6,1.0,comp,up,0.870229469918,1
angle,6,37,8,0,0.6,6,1.0,comp,right,0.870282363485,1
angle,6,38,8,270,0.6,6,-0.5,equ,n,0.77615136452,1
angle,6,39,8,180,0.8,6,1.0,equ,m,1.57587256177,1
angle,6,40,8,90,0.0,6,1.5,comp,down,1.6347074545,1
angle,6,41,8,180,0.6,6,2.0,equ,n,0.952567503497,1
angle,6,42,8,270,0.4,6,-0.5,comp,down,0.882011703277,1
angle,6,43,8,180,0.6,6,-1.0,equ,n,0.846735527957,1
angle,6,44,8,90,0.8,6,0.0,comp,up,0.905606449642,1
angle,6,45,8,90,0.0,6,-0.5,equ,n,1.11719872611,1
angle,6,46,8,180,0.6,6,-2.0,comp,right,0.776150597945,1
angle,6,47,8,180,0.0,6,-2.0,equ,n,0.882052331668,1
angle,6,48,8,270,0.0,6,-2.0,comp,down,0.976067961334,1
angle,6,49,8,0,0.2,6,2.0,comp,right,0.999596782385,1
angle,6,50,8,180,0.0,6,0.5,comp,left,1.14074594492,1
angle,6,51,8,180,0.2,6,1.5,equ,n,0.987855177418,1
angle,6,52,8,270,0.4,6,1.5,comp,up,0.834979741381,1
angle,6,53,8,0,0.2,6,-1.0,equ,n,0.740920800319,1
angle,6,54,8,0,0.0,6,1.5,equ,m,2.43438035763,1
angle,6,55,8,180,0.4,6,1.5,comp,left,1.02314131819,1
angle,6,56,8,0,0.8,6,1.5,equ,m,0.940868443353,1
angle,6,57,8,180,0.4,6,0.5,comp,left,1.91692528937,1
angle,6,58,8,180,0.8,6,0.5,comp,left,0.81146011921,1
angle,6,59,8,270,0.8,6,-1.0,comp,down,0.893813100971,1
angle,6,60,8,90,0.6,6,-1.0,comp,up,0.834996605996,1
angle,6,61,8,90,0.2,6,1.0,comp,up,1.08191526834,1
angle,6,62,8,270,0.2,6,0.5,equ,n,1.30538636642,1
angle,6,63,8,0,0.0,6,2.0,comp,right,1.01135333553,1
angle,6,64,8,270,0.2,6,2.0,comp,up,0.799681335431,1
angle,6,65,8,0,0.6,6,2.0,equ,m,1.69347987151,1
angle,6,66,8,180,0.6,6,-1.0,comp,right,0.77616899571,1
angle,6,67,8,180,0.8,6,1.0,comp,left,0.752678503326,1
angle,6,68,8,90,0.2,6,0.5,equ,m,1.04665480778,1
angle,6,69,8,90,0.4,6,-1.5,comp,up,0.588003202743,1
angle,6,70,8,180,0.2,6,-1.0,equ,n,0.882018602437,1
angle,6,71,8,0,0.2,6,-1.5,comp,left,0.599786202674,1
angle,6,72,8,90,0.8,6,-1.5,equ,n,1.18779592129,1
angle,6,73,8,0,0.6,6,-0.5,equ,n,0.729148915701,1
angle,6,74,8,90,0.0,6,1.5,equ,m,0.83497744166,1
angle,6,75,8,0,0.2,6,-2.0,equ,n,0.64683694562,1
angle,6,76,8,0,0.8,6,0.0,equ,n,0.705594797726,1
angle,6,77,8,90,0.4,6,-2.0,equ,n,0.929036766011,1
angle,6,78,8,180,0.2,6,0.5,equ,m,0.682062527094,1
angle,6,79,8,0,0.4,6,0.5,comp,right,1.10548165149,1
angle,6,80,8,0,0.8,6,-0.5,comp,left,0.635063527856,1
angle,6,81,8,0,0.0,6,-2.0,comp,left,0.576234767706,1
angle,6,82,8,270,0.6,6,-2.0,comp,down,0.776171295429,1
angle,6,83,8,180,0.6,6,2.0,comp,left,0.588028882954,1
angle,6,84,8,0,0.8,6,-2.0,comp,left,0.564488946588,1
angle,6,85,8,90,0.0,6,2.0,comp,down,0.799716597809,1
angle,6,86,8,0,0.4,6,-1.0,equ,n,2.16388343025,1
angle,6,87,8,0,0.6,6,0.0,comp,left,0.952605065593,1
angle,6,88,8,0,0.2,6,1.0,comp,left,0.658634510444,1
angle,6,89,8,270,0.6,6,-1.5,equ,n,1.66996101591,1
angle,6,90,8,90,0.6,6,0.5,equ,m,1.0231440012,1
angle,6,91,8,90,0.2,6,2.0,comp,down,1.28189434089,1
angle,6,92,8,270,0.0,6,2.0,comp,up,0.905544740483,1
angle,6,93,8,180,0.2,6,-0.5,equ,m,0.846781522361,1
angle,6,94,8,270,0.2,6,1.5,comp,down,1.25834290592,1
angle,6,95,8,0,0.6,6,-1.0,equ,n,1.2465859694799999,1
angle,6,96,8,180,0.8,6,2.0,comp,left,0.576247032883,1
angle,6,97,8,270,0.8,6,-1.5,equ,n,0.717377031086,1
angle,6,98,8,0,0.8,6,2.0,comp,right,0.752652439831,1
angle,6,99,8,180,0.4,6,-1.0,equ,m,0.78813712312,1
angle,6,100,8,0,0.6,6,-1.5,equ,n,0.940822448949,1
angle,6,101,8,180,0.2,6,2.0,equ,m,0.976101307275,1
angle,6,102,8,90,0.2,6,1.5,equ,n,1.47000762357,1
angle,6,103,8,180,0.4,6,2.0,comp,left,0.799694367181,1
angle,6,104,8,0,0.6,6,0.0,equ,m,0.96433172238,1
angle,6,105,8,90,0.2,6,-1.5,comp,up,0.75269191836,1
angle,6,106,8,180,0.8,6,0.0,comp,right,1.30542124551,1
angle,6,107,8,270,0.0,6,-1.5,equ,n,0.870267798589,1
angle,6,108,8,0,0.4,6,2.0,equ,m,1.15250671422,1
angle,6,109,8,270,0.2,6,2.0,equ,m,1.02313096945,1
angle,6,110,8,180,0.0,6,-0.5,equ,m,0.752630592489,1
angle,6,111,8,90,0.2,6,2.0,equ,n,0.999616330007,1
angle,6,112,8,270,0.8,6,1.5,comp,up,0.74086484046,1
angle,6,113,8,270,0.4,6,-2.0,equ,n,0.964363535177,1
angle,6,114,8,270,0.2,6,-1.5,comp,down,0.823210539771,1
angle,6,115,8,180,0.2,6,0.5,comp,right,2.30505482341,1
angle,6,116,8,90,0.6,6,1.5,comp,down,0.834976675087,1
angle,6,117,8,0,0.4,6,1.5,comp,right,0.811440571588,1
angle,6,118,8,270,0.2,6,-2.0,comp,down,0.693848976605,1
angle,6,119,8,0,0.0,6,1.0,comp,right,0.76441934172,1
angle,6,120,8,90,0.6,6,0.5,comp,down,1.09368178694,1
angle,6,121,8,180,0.6,6,1.5,comp,left,0.752690001927,1
angle,6,122,8,90,0.0,6,-1.5,comp,up,1.02318347973,1
angle,6,123,8,90,0.2,6,-2.0,comp,up,0.682099322617,1
angle,6,124,8,0,0.6,6,-1.0,comp,left,0.740898952976,1
angle,6,125,8,180,0.0,6,1.0,equ,m,0.776154047528,1
angle,6,126,8,90,0.6,6,-1.0,equ,n,1.14073942905,1
angle,6,127,8,90,0.4,6,1.0,comp,up,1.48180250539,1
angle,6,128,8,0,0.2,6,1.0,equ,m,0.670336253595,1
angle,6,129,8,90,0.4,6,-1.0,equ,n,0.70562584395,1
