session,trial,size,orLarge,phase,dur,orSmall,task,response,rt,subject
1,1,8,180,0.4,6,-1.5,comp,right,2.34027963831,1
1,2,8,180,0.2,6,0.0,comp,left,1.46999152553,1
1,3,8,180,0.8,6,-2.0,comp,right,0.71736706563,1
1,4,8,180,0.4,6,-2.0,comp,right,0.752619093888,1
1,5,8,180,0.2,6,1.5,comp,left,0.611524741349,1
1,6,8,180,0.4,6,0.0,comp,right,1.05841059435,1
1,7,8,180,0.2,6,0.5,comp,right,1.52881721939,1
1,8,8,180,0.0,6,0.0,comp,right,1.1289510631,1
1,9,8,180,0.6,6,-2.0,comp,right,0.88198104034,1
1,10,8,180,0.4,6,0.5,comp,left,0.693885388842,1
1,11,8,180,0.0,6,0.5,comp,left,0.776131816898,1
1,12,8,180,0.4,6,-0.5,comp,right,1.38770063622,1
1,13,8,180,0.0,6,-1.5,comp,right,0.76440171053,1
1,14,8,180,0.4,6,1.5,comp,left,0.787930531584,1
1,15,8,180,0.2,6,-1.0,comp,right,0.799702799488,1
1,16,8,180,0.6,6,2.0,comp,left,0.611243792193,1
1,17,8,180,0.6,6,0.0,comp,right,0.764384079343,1
1,18,8,180,0.4,6,2.0,comp,left,0.6115059603,1
1,19,8,180,0.8,6,-1.5,comp,right,0.564521142669,1
1,20,8,180,0.4,6,1.0,comp,left,0.540932145605,1
1,21,8,180,0.8,6,2.0,comp,right,0.458627841257,1
1,22,8,180,0.2,6,-0.5,comp,right,0.682075175555,1
1,23,8,180,0.8,6,-0.5,comp,left,0.576244733162,1
1,24,8,180,0.6,6,1.0,comp,left,0.764432373468,1
1,25,8,180,0.6,6,0.5,comp,left,0.59973560883,1
1,26,8,180,0.2,6,-2.0,comp,right,0.71732988682,1
1,27,8,180,0.6,6,-0.5,comp,left,0.646785201912,1
1,28,8,180,0.0,6,-2.0,comp,right,0.764387145637,1
1,29,8,180,0.0,6,1.5,comp,left,0.587979055681,1
1,30,8,180,0.0,6,-1.0,comp,right,0.623331505056,1
1,31,8,180,0.4,6,-1.0,comp,left,0.470374428951,1
1,32,8,180,0.8,6,0.0,comp,right,2.41083773826,1
1,33,8,180,0.8,6,0.5,comp,right,0.776163629695,1
1,34,8,180,0.2,6,-1.5,comp,right,0.799664470816,1
1,35,8,180,0.0,6,2.0,comp,left,0.799741894733,1
1,36,8,180,0.8,6,-1.0,comp,right,0.705587515278,1
1,37,8,180,0.0,6,1.0,comp,left,0.670347368909,1
1,38,8,180,0.6,6,1.5,comp,left,0.740902402556,1
1,39,8,180,0.6,6,-1.5,comp,right,0.611636661068,1
1,40,8,180,0.8,6,1.5,comp,left,0.540955142807,1
1,41,8,180,0.2,6,1.0,comp,left,0.658572417999,1
1,42,8,180,0.6,6,-1.0,comp,right,0.611541222677,1
1,43,8,180,0.8,6,1.0,comp,left,0.599760139179,1
1,44,8,180,0.0,6,-0.5,comp,left,0.846718663341,1
1,45,8,180,0.2,6,2.0,comp,left,0.62328091121,1
1,46,8,180,0.6,6,-1.0,comp,right,0.893759824117,1
1,47,8,180,0.2,6,-1.5,comp,right,1.03489633819,1
1,48,8,180,0.2,6,0.5,comp,left,0.658562835832,1
1,49,8,180,0.8,6,-1.5,comp,right,0.740906235422,1
1,50,8,180,0.4,6,-0.5,comp,right,0.893768639713,1
1,51,8,180,0.6,6,-0.5,comp,right,0.952536073986,1
1,52,8,180,0.4,6,0.0,comp,left,0.67030520737,1
1,53,8,180,0.8,6,-2.0,comp,right,0.682095873037,1
1,54,8,180,0.4,6,1.0,comp,left,0.623290110092,1
1,55,8,180,0.2,6,2.0,comp,left,0.64680321639,1
1,56,8,180,0.6,6,2.0,comp,left,0.576245883021,1
1,57,8,180,0.8,6,0.5,comp,left,0.646804749535,1
1,58,8,180,0.0,6,1.0,comp,left,0.587976372675,1
1,59,8,180,0.4,6,-1.0,comp,right,0.82323507012,1
1,60,8,180,0.2,6,-0.5,comp,right,0.77617359515,1
1,61,8,180,0.6,6,-2.0,comp,right,0.670323988419,1
1,62,8,180,0.6,6,1.0,comp,left,0.740884771369,1
1,63,8,180,0.2,6,0.0,comp,left,0.588001286311,1
1,64,8,180,0.0,6,2.0,comp,left,0.493918581471,1
1,65,8,180,0.2,6,-1.0,comp,right,0.635074259884,1
1,66,8,180,0.2,6,-2.0,comp,right,0.55272051155,1
1,67,8,180,0.8,6,1.5,comp,left,0.599745190997,1
1,68,8,180,0.8,6,-1.0,comp,right,0.670328971148,1
1,69,8,180,0.6,6,0.0,comp,left,0.517439353502,1
1,70,8,180,0.4,6,0.5,comp,left,1.48176341015,1
1,71,8,180,0.0,6,-1.0,comp,right,0.76442969046,1
1,72,8,180,0.4,6,-2.0,comp,right,0.682117720378,1
1,73,8,180,0.8,6,2.0,comp,left,0.658563985691,1
1,74,8,180,0.8,6,0.0,comp,right,1.25836590312,1
1,75,8,180,0.4,6,-1.5,comp,left,0.482154362589,1
1,76,8,180,0.6,6,1.5,comp,left,0.693814864089,1
1,77,8,180,0.6,6,0.5,comp,left,0.658565135551,1
1,78,8,180,0.4,6,1.5,comp,left,0.588003202743,1
1,79,8,180,0.0,6,0.0,comp,left,0.588013168197,1
1,80,8,180,0.8,6,1.0,comp,left,0.670326671427,1
1,81,8,180,0.4,6,2.0,comp,left,0.740883621507,1
1,82,8,180,0.0,6,0.5,comp,right,0.846706398168,1
1,83,8,180,0.0,6,-0.5,comp,right,1.070195894,1
1,84,8,180,0.2,6,1.0,comp,left,0.799689001165,1
1,85,8,180,0.2,6,1.5,comp,left,0.952558304616,1
1,86,8,180,0.0,6,-2.0,comp,right,1.31716131733,1
1,87,8,180,0.0,6,-1.5,comp,right,0.670341619609,1
1,88,8,180,0.8,6,-0.5,comp,left,0.799687084733,1
1,89,8,180,0.0,6,1.5,comp,left,0.752643624237,1
1,90,8,180,0.6,6,-1.5,comp,right,0.834973225508,1
1,91,8,180,0.6,6,-2.0,comp,right,0.799714681376,1
1,92,8,180,0.2,6,-2.0,comp,right,1.11722823918,1
1,93,8,180,0.4,6,-0.5,comp,left,0.623260213728,1
1,94,8,180,0.6,6,1.0,comp,left,0.717354800454,1
1,95,8,180,0.8,6,-0.5,comp,right,1.18774686059,1
1,96,8,180,0.0,6,-1.5,comp,right,1.16426978325,1
1,97,8,180,0.8,6,-1.0,comp,right,0.682077858561,1
1,98,8,180,0.4,6,2.0,comp,left,0.670320155552,1
1,99,8,180,0.4,6,-1.5,comp,right,0.776158646968,1
1,100,8,180,0.8,6,1.5,comp,left,0.846739360823,1
1,101,8,180,0.2,6,-1.0,comp,right,0.929026033984,1
1,102,8,180,0.4,6,-1.0,comp,right,1.76406671795,1
1,103,8,180,0.6,6,0.0,comp,left,0.999593716091,1
1,104,8,180,0.0,6,1.0,comp,left,0.717352117448,1
1,105,8,180,0.0,6,-1.0,comp,right,0.717382780384,1
1,106,8,180,0.8,6,1.0,comp,left,0.717340618847,1
1,107,8,180,0.0,6,-2.0,comp,right,0.599767804913,1
1,108,8,180,0.8,6,-2.0,comp,right,0.670332804015,1
1,109,8,180,0.0,6,0.5,comp,left,0.682083607862,1
1,110,8,180,0.8,6,2.0,comp,left,0.599782753094,1
1,111,8,180,0.6,6,-1.0,comp,right,0.693858558772,1
1,112,8,180,0.4,6,0.5,comp,left,0.635053179116,1
1,113,8,180,0.4,6,-2.0,comp,right,0.623282061069,1
1,114,8,180,0.2,6,2.0,comp,left,0.493813560914,1
1,115,8,180,0.6,6,1.5,comp,left,0.752650140112,1
1,116,8,180,0.4,6,1.0,comp,left,0.729127451645,1
1,117,8,180,0.6,6,0.5,comp,left,0.540962808542,1
1,118,8,180,0.0,6,1.5,comp,left,0.446876270835,1
1,119,8,180,0.8,6,0.0,comp,right,0.917268330973,1
1,120,8,180,0.6,6,2.0,comp,left,0.599763972046,1
1,121,8,180,0.4,6,1.5,comp,left,0.658540605202,1
1,122,8,180,0.2,6,0.0,comp,left,0.658552103803,1
1,123,8,180,0.4,6,0.0,comp,left,0.564516926515,1
1,124,8,180,0.2,6,-1.5,comp,left,0.458628991117,1
1,125,8,180,0.0,6,2.0,comp,left,0.658536772335,1
1,126,8,180,0.2,6,-0.5,comp,left,0.599743657851,1
1,127,8,180,0.2,6,1.0,comp,left,0.79971774767,1
1,128,8,180,0.6,6,-0.5,comp,right,1.05841059435,1
1,129,8,180,0.2,6,0.5,comp,left,0.635061994708,1
1,130,8,180,0.2,6,1.5,comp,left,0.68208629087,1
1,131,8,180,0.8,6,0.5,comp,left,0.964329422659,1
1,132,8,180,0.6,6,-1.5,comp,right,0.823249635016,1
1,133,8,180,0.8,6,-1.5,comp,right,0.823194058443,1
1,134,8,180,0.0,6,0.0,comp,left,0.646799383521,1
1,135,8,180,0.0,6,-0.5,comp,right,0.83499392299,1
1,136,8,180,0.4,6,-2.0,comp,right,0.682101622337,1
1,137,8,180,0.0,6,-2.0,comp,right,0.611506343588,1
1,138,8,180,0.4,6,1.5,comp,left,0.658573567858,1
1,139,8,180,0.6,6,-2.0,comp,right,0.670323988419,1
1,140,8,180,0.4,6,2.0,comp,left,0.552727027425,1
1,141,8,180,0.6,6,1.0,comp,right,0.85847981593,1
1,142,8,180,0.6,6,-1.5,comp,right,0.7290826071,1
1,143,8,180,0.8,6,1.0,comp,left,0.834956744178,1
1,144,8,180,0.2,6,2.0,comp,left,0.70559556429900006,1
1,145,8,180,0.0,6,1.5,comp,left,0.705608979335,1
1,146,8,180,0.4,6,-0.5,comp,right,0.858484032084,1
1,147,8,180,0.8,6,-1.0,comp,right,1.24657830375,1
1,148,8,180,0.2,6,0.0,comp,right,0.787933214591,1
1,149,8,180,0.4,6,-1.5,comp,right,0.682080924855,1
1,150,8,180,0.6,6,1.5,comp,left,0.611523974774,1
1,151,8,180,0.8,6,-0.5,comp,left,1.17588988633,1
1,152,8,180,0.2,6,0.5,comp,left,0.599786969249,1
1,153,8,180,0.2,6,1.0,comp,left,0.846754692291,1
1,154,8,180,0.4,6,-1.0,comp,right,0.882017835864,1
1,155,8,180,0.6,6,-1.0,comp,right,0.799700499769,1
1,156,8,180,0.6,6,0.5,comp,left,0.729091422696,1
1,157,8,180,0.0,6,0.0,comp,right,1.62282786632,1
1,158,8,180,0.4,6,0.5,comp,left,0.834961343618,1
1,159,8,180,0.0,6,-0.5,comp,left,0.729135883954,1
1,160,8,180,0.6,6,0.0,comp,left,0.658562452545,1
1,161,8,180,0.2,6,-1.0,comp,left,0.964313707904,1
1,162,8,180,0.6,6,2.0,comp,left,0.717386613253,1
1,163,8,180,0.2,6,-0.5,comp,right,0.893742959501,1
1,164,8,180,0.0,6,1.0,comp,left,0.564462499804,1
1,165,8,180,0.8,6,1.5,comp,left,0.682088207304,1
1,166,8,180,0.0,6,2.0,comp,left,0.576227868547,1
1,167,8,180,0.2,6,-2.0,comp,right,0.729125151925,1
1,168,8,180,0.4,6,0.0,comp,left,1.15249176604,1
1,169,8,180,0.6,6,-0.5,comp,left,0.858495530685,1
1,170,8,180,0.4,6,1.0,comp,left,0.72912821822,1
1,171,8,180,0.0,6,0.5,comp,right,1.85806893258,1
1,172,8,180,0.8,6,-2.0,comp,right,0.752671604165,1
1,173,8,180,0.8,6,0.5,comp,left,0.670350435203,1
1,174,8,180,0.0,6,-1.5,comp,right,0.764388295496,1
1,175,8,180,0.2,6,-1.5,comp,right,0.729143932973,1
1,176,8,180,0.8,6,0.0,comp,left,0.823231237253,1
1,177,8,180,0.0,6,-1.0,comp,right,0.858464101177,1
1,178,8,180,0.2,6,1.5,comp,left,0.599786969249,1
1,179,8,180,0.8,6,2.0,comp,left,0.799648756063,1
1,180,8,180,0.8,6,-1.5,comp,right,0.893762123836,1
1,181,8,180,0.2,6,1.5,comp,left,0.564454067497,1
1,182,8,180,0.4,6,-2.0,comp,right,0.811437122007,1
1,183,8,180,0.4,6,-1.0,comp,left,0.587977905821,1
1,184,8,180,0.8,6,0.0,comp,right,1.91694215399,1
1,185,8,180,0.2,6,-2.0,comp,right,0.870256683274,1
1,186,8,180,0.6,6,-2.0,comp,right,0.729148532413,1
1,187,8,180,0.2,6,-0.5,comp,right,1.10546248715,1
1,188,8,180,0.6,6,1.0,comp,left,0.752676586893,1
1,189,8,180,0.8,6,-0.5,comp,right,0.940789103006,1
1,190,8,180,0.0,6,0.0,comp,right,0.823179493547,1
1,191,8,180,0.0,6,1.5,comp,left,0.705607062901,1
1,192,8,180,0.6,6,2.0,comp,left,0.834963260053,1
1,193,8,180,0.6,6,-1.5,comp,right,0.787942413472,1
1,194,8,180,0.0,6,1.0,comp,left,1.88161193524,1
1,195,8,180,0.0,6,-1.5,comp,right,0.729127451645,1
1,196,8,180,0.2,6,0.5,comp,left,1.22306059801,1
1,197,8,180,0.6,6,0.0,comp,right,1.17599873975,1
1,198,8,180,0.4,6,-0.5,comp,right,1.01137288316,1
1,199,8,180,0.0,6,-1.0,comp,right,0.858467550755,1
1,200,8,180,0.8,6,-1.5,comp,right,0.834938346417,1
1,201,8,180,0.6,6,-0.5,comp,right,0.682105455204,1
1,202,8,180,0.2,6,1.0,comp,right,0.693905319751,1
1,203,8,180,0.0,6,2.0,comp,left,3.18703126431,1
1,204,8,180,0.4,6,0.0,comp,right,1.01138783134,1
1,205,8,180,0.8,6,-2.0,comp,right,0.717390062831,1
1,206,8,180,0.8,6,2.0,comp,left,0.752617177453,1
1,207,8,180,0.4,6,2.0,comp,left,0.705618178215,1
1,208,8,180,0.2,6,-1.5,comp,right,0.776146381793,1
1,209,8,180,0.0,6,-0.5,comp,left,0.693856642338,1
1,210,8,180,0.6,6,1.5,comp,left,0.75264324095,1
1,211,8,180,0.2,6,2.0,comp,left,0.588013551484,1
1,212,8,180,0.0,6,-2.0,comp,right,0.658597331634,1
1,213,8,180,0.4,6,0.5,comp,left,0.705633509684,1
1,214,8,180,0.4,6,1.5,comp,left,0.729107904024,1
1,215,8,180,0.0,6,0.5,comp,left,0.670333953874,1
1,216,8,180,0.8,6,1.0,comp,left,0.881985256494,1
1,217,8,180,0.2,6,-1.0,comp,left,0.705623544229,1
1,218,8,180,0.6,6,-1.0,comp,left,0.823220888511,1
1,219,8,180,0.8,6,1.5,comp,left,0.740942264374,1
1,220,8,180,0.4,6,1.0,comp,left,4.97456279444,1
1,221,8,180,0.8,6,-1.0,comp,right,0.823241585995,1
1,222,8,180,0.8,6,0.5,comp,left,0.646802449815,1
1,223,8,180,0.6,6,0.5,comp,right,1.12900778954,1
1,224,8,180,0.4,6,-1.5,comp,right,0.79971889753,1
1,225,8,180,0.2,6,0.0,comp,right,1.10545712114,1
1,226,8,180,0.4,6,-2.0,comp,right,0.787960427948,1
1,227,8,180,0.8,6,-1.0,comp,right,1.10545750443,1
1,228,8,180,0.6,6,0.5,comp,left,0.940814016642,1
1,229,8,180,0.8,6,0.0,comp,right,3.35166287021,1
1,230,8,180,0.6,6,-0.5,comp,right,1.15251093038,1
1,231,8,180,0.4,6,-0.5,comp,left,0.77615251438,1
1,232,8,180,0.4,6,1.5,comp,left,0.799687851306,1
1,233,8,180,0.8,6,-0.5,comp,left,2.6107650671,1
1,234,8,180,0.0,6,0.0,comp,left,1.92864044756,1
1,235,8,180,0.4,6,-1.5,comp,left,1.42298524385,1
1,236,8,180,0.2,6,2.0,comp,left,1.02316316553,1
1,237,8,180,0.8,6,0.5,comp,left,2.2344181497,1
1,238,8,180,0.2,6,1.0,comp,left,1.11722095674,1
1,239,8,180,0.2,6,0.5,comp,left,0.858504729567,1
1,240,8,180,0.0,6,2.0,comp,left,0.893795086495,1
1,241,8,180,0.8,6,2.0,comp,left,0.78792631543,1
1,242,8,180,0.2,6,-0.5,comp,left,0.799721963822,1
1,243,8,180,0.4,6,0.0,comp,left,0.882036616911,1
1,244,8,180,0.8,6,1.0,comp,left,0.740902402556,1
1,245,8,180,0.6,6,-1.5,comp,right,0.870251700548,1
1,246,8,180,0.0,6,1.5,comp,left,0.823241969281,1
1,247,8,180,0.4,6,0.5,comp,left,0.646779069326,1
1,248,8,180,0.6,6,2.0,comp,left,0.540957825815,1
1,249,8,180,0.6,6,1.0,comp,left,0.493920114617,1
1,250,8,180,0.4,6,1.0,comp,left,0.564490479732,1
1,251,8,180,0.4,6,-1.0,comp,left,0.446860939366,1
1,252,8,180,0.0,6,-0.5,comp,right,0.787910217388,1
1,253,8,180,0.0,6,0.5,comp,left,0.705589814999,1
1,254,8,180,0.6,6,-2.0,comp,right,0.576231701414,1
1,255,8,180,0.0,6,-1.5,comp,right,0.799693217321,1
1,256,8,180,0.0,6,1.0,comp,right,1.04663066071,1
1,257,8,180,0.6,6,-1.0,comp,right,0.588010485191,1
1,258,8,180,0.8,6,-1.5,comp,right,1.17600295591,1
1,259,8,180,0.2,6,-2.0,comp,right,0.599797317989,1
1,260,8,180,0.2,6,1.5,comp,left,0.870286962925,1
1,261,8,180,0.6,6,1.5,comp,left,0.67036346695,1
1,262,8,180,0.2,6,-1.0,comp,right,0.811446320888,1
1,263,8,180,0.8,6,-2.0,comp,right,0.57627041337,1
1,264,8,180,0.2,6,0.0,comp,right,3.17522718361,1
1,265,8,180,0.8,6,1.5,comp,right,0.70559211472,1
1,266,8,180,0.0,6,-2.0,comp,left,1.0231524335,1
1,267,8,180,0.6,6,0.0,comp,left,1.11719144366,1
1,268,8,180,0.0,6,-1.0,comp,right,1.76403413858,1
1,269,8,180,0.2,6,-1.5,comp,right,0.952551022168,1
1,270,8,180,0.4,6,2.0,comp,left,0.787932064732,1
2,1,8,0,0.2,6,-0.5,comp,right,2.26972997068,1
2,2,8,0,0.2,6,2.0,comp,right,0.893755607964,1
2,3,8,0,0.2,6,-2.0,comp,left,0.623261746874,1
2,4,8,0,0.0,6,0.0,comp,right,0.893780521599,1
2,5,8,0,0.4,6,-0.5,comp,left,0.646611189748,1
2,6,8,0,0.4,6,-1.0,comp,left,1.24657025473,1
2,7,8,0,0.6,6,0.5,comp,right,0.611547355264,1
2,8,8,0,0.0,6,0.5,comp,right,0.705588281853,1
2,9,8,0,0.8,6,-1.5,comp,left,0.670348518768,1
2,10,8,0,0.4,6,-1.5,comp,left,1.50528264903,1
2,11,8,0,0.6,6,0.0,comp,right,0.823185626135,1
2,12,8,0,0.0,6,-0.5,comp,right,0.682091273597,1
2,13,8,0,0.0,6,-1.0,comp,left,0.646776769605,1
2,14,8,0,0.0,6,2.0,comp,right,0.5997624389,1
2,15,8,0,0.2,6,1.0,comp,right,0.646799383521,1
2,16,8,0,0.8,6,-0.5,comp,right,0.623292026525,1
2,17,8,0,0.6,6,-1.5,comp,right,0.576276929245,1
2,18,8,0,0.8,6,0.5,comp,right,0.635057011981,1
2,19,8,0,0.2,6,-1.5,comp,right,0.470407391609,1
2,20,8,0,0.4,6,-2.0,comp,left,0.729132434373,1
2,21,8,0,0.0,6,-2.0,comp,left,0.59976358876,1
2,22,8,0,0.8,6,1.0,comp,right,0.776169762283,1
2,23,8,0,0.6,6,-1.0,comp,left,0.599785819388,1
2,24,8,0,0.8,6,1.5,comp,right,0.540976223576,1
2,25,8,0,0.6,6,-0.5,comp,right,0.90550871153,1
2,26,8,0,0.6,6,1.0,comp,right,0.717390829406,1
2,27,8,0,0.2,6,0.5,comp,right,0.752637874935,1
2,28,8,0,0.4,6,0.5,comp,left,0.552724727702,1
2,29,8,0,0.6,6,-2.0,comp,left,0.729101771436,1
2,30,8,0,0.8,6,0.0,comp,right,0.670313639679,1
2,31,8,0,0.8,6,2.0,comp,right,0.705632743109,1
2,32,8,0,0.4,6,2.0,comp,left,0.740865607033,1
2,33,8,0,0.6,6,1.5,comp,right,1.31716744991,1
2,34,8,0,0.0,6,1.5,comp,right,3.13995177487,1
2,35,8,0,0.0,6,1.0,comp,right,0.62329739254,1
2,36,8,0,0.4,6,1.0,comp,right,0.670325904854,1
2,37,8,0,0.2,6,-1.0,comp,right,0.858487864951,1
2,38,8,0,0.8,6,-1.0,comp,right,0.64682506373,1
2,39,8,0,0.2,6,0.0,comp,right,0.59975783946,1
2,40,8,0,0.2,6,1.5,comp,right,0.564478214559,1
2,41,8,0,0.0,6,-1.5,comp,left,0.658524890447,1
2,42,8,0,0.4,6,1.5,comp,right,0.635031331773,1
2,43,8,0,0.6,6,2.0,comp,right,0.588030799387,1
2,44,8,0,0.4,6,0.0,comp,left,0.599763205473,1
2,45,8,0,0.8,6,-2.0,comp,left,0.940794852306,1
2,46,8,0,0.0,6,-1.5,comp,right,0.917293627897,1
2,47,8,0,0.0,6,1.0,comp,right,0.623273245477,1
2,48,8,0,0.0,6,-2.0,comp,left,0.752566200323,1
2,49,8,0,0.2,6,-1.0,comp,left,2.09334947737,1
2,50,8,0,0.6,6,0.5,comp,left,0.71732988682,1
2,51,8,0,0.6,6,-2.0,comp,left,0.717389296258,1
2,52,8,0,0.2,6,1.5,comp,left,0.635043980234,1
2,53,8,0,0.8,6,-1.5,comp,left,0.58799783673,1
2,54,8,0,0.8,6,1.0,comp,left,0.564476681413,1
2,55,8,0,0.0,6,-0.5,comp,left,0.646813948415,1
2,56,8,0,0.4,6,1.5,comp,left,0.893783971182,1
2,57,8,0,0.0,6,-1.0,comp,left,0.964338238253,1
2,58,8,0,0.6,6,1.5,comp,right,0.65856628541,1
2,59,8,0,0.2,6,0.5,comp,left,1.19951414577,1
2,60,8,0,0.4,6,-1.5,comp,left,1.01137633274,1
2,61,8,0,0.2,6,-1.5,comp,left,0.764386379064,1
2,62,8,0,0.2,6,0.0,comp,left,0.552723194556,1
2,63,8,0,0.2,6,1.0,comp,left,0.505659803153,1
2,64,8,0,0.6,6,-1.0,comp,left,1.02313365246,1
2,65,8,0,0.2,6,2.0,comp,right,2.44610049854,1
2,66,8,0,0.2,6,-0.5,comp,right,0.635043980234,1
2,67,8,0,0.6,6,-0.5,comp,right,0.693842460731,1
2,68,8,0,0.6,6,2.0,comp,right,0.693847060171,1
2,69,8,0,0.4,6,1.0,comp,right,0.870254000269,1
2,70,8,0,0.6,6,-1.5,comp,right,3.91619244519,1
2,71,8,0,0.8,6,2.0,comp,right,0.529167160148,1
2,72,8,0,0.0,6,1.5,comp,right,0.576244733162,1
2,73,8,0,0.8,6,1.5,comp,right,0.505706180844,1
2,74,8,0,0.0,6,0.0,comp,right,0.482139031121,1
2,75,8,0,0.4,6,2.0,comp,right,0.587987871275,1
2,76,8,0,0.8,6,-0.5,comp,right,0.482168927483,1
2,77,8,0,0.0,6,0.5,comp,right,0.611530107362,1
2,78,8,0,0.6,6,1.0,comp,right,0.693858558772,1
2,79,8,0,0.2,6,-2.0,comp,left,0.740868673325,1
2,80,8,0,0.8,6,-2.0,comp,left,0.999632044761,1
2,81,8,0,0.0,6,2.0,comp,right,0.682105455206,1
2,82,8,0,0.4,6,0.5,comp,right,0.89377822188,1
2,83,8,0,0.8,6,-1.0,comp,right,1.05841519379,1
2,84,8,0,0.6,6,0.0,comp,right,0.611507110159,1
2,85,8,0,0.4,6,0.0,comp,right,1.23481983417,1
2,86,8,0,0.4,6,-2.0,comp,left,0.63507234345,1
2,87,8,0,0.8,6,0.5,comp,right,1.3171390867,1
2,88,8,0,0.4,6,-1.0,comp,right,0.77616899571,1
2,89,8,0,0.4,6,-0.5,comp,right,1.17601292136,1
2,90,8,0,0.8,6,0.0,comp,right,0.717375881224,1
2,91,8,0,0.8,6,-1.0,comp,right,0.646769103872,1
2,92,8,0,0.6,6,0.0,comp,right,0.646755688838,1
2,93,8,0,0.4,6,-0.5,comp,right,0.529202805812,1
2,94,8,0,0.0,6,1.5,comp,right,0.56448204742600006,1
2,95,8,0,0.2,6,-2.0,comp,right,0.482181959231,1
2,96,8,0,0.8,6,-0.5,comp,right,0.670356567791,1
2,97,8,0,0.8,6,2.0,comp,left,0.846743193692,1
2,98,8,0,0.8,6,1.5,comp,right,0.823239669562,1
2,99,8,0,0.4,6,0.5,comp,left,0.952565203776,1
2,100,8,0,0.6,6,1.5,comp,right,0.740891287242,1
2,101,8,0,0.2,6,2.0,comp,right,0.752610661581,1
2,102,8,0,0.4,6,-1.5,comp,left,0.740874422627,1
2,103,8,0,0.6,6,2.0,comp,right,0.752650906685,1
2,104,8,0,0.2,6,1.0,comp,right,0.870273931176,1
2,105,8,0,0.4,6,-1.0,comp,left,0.529166776862,1
2,106,8,0,0.0,6,0.0,comp,right,0.611518608761,1
2,107,8,0,0.8,6,-2.0,comp,left,0.72909563885,1
2,108,8,0,0.0,6,-1.0,comp,right,1.47002448819,1
2,109,8,0,0.8,6,-1.5,comp,left,0.635004501702,1
2,110,8,0,0.6,6,-2.0,comp,left,2.22270567452,1
2,111,8,0,0.2,6,1.5,comp,right,0.599765505194,1
2,112,8,0,0.2,6,-0.5,comp,right,2.86945868035,1
2,113,8,0,0.8,6,1.0,comp,right,0.834970159214,1
2,114,8,0,0.6,6,1.0,comp,right,0.976082142941,1
2,115,8,0,0.0,6,-1.5,comp,left,0.858496297258,1
2,116,8,0,0.2,6,0.0,comp,right,1.32887647551,1
2,117,8,0,0.0,6,-2.0,comp,left,0.929054013912,1
2,118,8,0,0.0,6,1.0,comp,right,0.823259600471,1
2,119,8,0,0.6,6,-1.5,comp,left,0.84670946446,1
2,120,8,0,0.0,6,-0.5,comp,right,1.03489787134,1
2,121,8,0,0.4,6,1.5,comp,right,0.764441189063,1
2,122,8,0,0.6,6,-0.5,comp,right,0.63507809275,1
2,123,8,0,0.8,6,0.0,comp,right,0.693804132061,1
2,124,8,0,0.4,6,1.0,comp,right,0.658590432473,1
2,125,8,0,0.2,6,-1.0,comp,right,0.611555404284,1
2,126,8,0,0.4,6,0.0,comp,right,0.646800533381,1
2,127,8,0,0.6,6,-1.0,comp,left,0.776072024173,1
2,128,8,0,0.0,6,2.0,comp,right,0.799688617881,1
2,129,8,0,0.4,6,-2.0,comp,left,1.51705070078,1
2,130,8,0,0.6,6,0.5,comp,right,1.21128526381,1
2,131,8,0,0.0,6,0.5,comp,right,0.905508711532,1
2,132,8,0,0.2,6,0.5,comp,right,1.21127338193,1
2,133,8,0,0.4,6,2.0,comp,right,0.576236684141,1
2,134,8,0,0.2,6,-1.5,comp,left,0.611511326313,1
2,135,8,0,0.8,6,0.5,comp,left,2.41085077,1
2,136,8,0,0.0,6,2.0,comp,right,1.09369136911,1
2,137,8,0,0.0,6,-0.5,comp,right,0.882011703277,1
2,138,8,0,0.2,6,-1.5,comp,left,0.717340618847,1
2,139,8,0,0.6,6,2.0,comp,right,0.834953677884,1
2,140,8,0,0.2,6,-1.0,comp,right,1.12900702296,1
2,141,8,0,0.2,6,1.0,comp,right,1.18778212297,1
2,142,8,0,0.6,6,1.0,comp,right,0.823238136414,1
2,143,8,0,0.0,6,1.0,comp,left,0.670388380586,1
2,144,8,0,0.2,6,0.0,comp,right,0.576133580018,1
2,145,8,0,0.2,6,-0.5,comp,right,0.729105221017,1
2,146,8,0,0.4,6,-1.0,comp,right,0.729171529616,1
2,147,8,0,0.8,6,-2.0,comp,right,0.646795933941,1
2,148,8,0,0.4,6,1.0,comp,right,0.540907231969,1
2,149,8,0,0.6,6,0.0,comp,right,0.729127451645,1
2,150,8,0,0.6,6,1.5,comp,right,2.01103405771,1
2,151,8,0,0.2,6,1.5,comp,right,0.635058161841,1
2,152,8,0,0.6,6,-2.0,comp,left,0.776175511583,1
2,153,8,0,0.0,6,1.5,comp,right,0.588028116379,1
2,154,8,0,0.8,6,-1.0,comp,right,1.11721022471,1
2,155,8,0,0.0,6,-2.0,comp,right,0.929048264612,1
2,156,8,0,0.8,6,0.0,comp,right,0.635053179114,1
2,157,8,0,0.6,6,-1.0,comp,right,0.729121702345,1
2,158,8,0,0.0,6,0.0,comp,right,0.799679802285,1
2,159,8,0,0.2,6,2.0,comp,right,1.5406006026,1
2,160,8,0,0.8,6,1.0,comp,right,0.752626376334,1
2,161,8,0,0.4,6,0.0,comp,right,0.564510793929,1
2,162,8,0,0.0,6,0.5,comp,right,0.564503511481,1
2,163,8,0,0.6,6,-0.5,comp,right,0.870249784113,1
2,164,8,0,0.0,6,-1.5,comp,left,0.729132434373,1
2,165,8,0,0.6,6,0.5,comp,right,0.670345069189,1
2,166,8,0,0.4,6,1.5,comp,right,0.599768954773,1
2,167,8,0,0.8,6,0.5,comp,right,1.48180902127,1
2,168,8,0,0.6,6,-1.5,comp,right,1.02313365246,1
2,169,8,0,0.4,6,0.5,comp,right,0.740886687801,1
2,170,8,0,0.4,6,2.0,comp,right,0.599736758692,1
2,171,8,0,0.4,6,-0.5,comp,left,0.658565518839,1
2,172,8,0,0.8,6,-1.5,comp,left,0.611540456102,1
2,173,8,0,0.8,6,-0.5,comp,right,1.74051259998,1
2,174,8,0,0.8,6,2.0,comp,right,1.3053752511,1
2,175,8,0,0.4,6,-2.0,comp,left,0.5292146877,1
2,176,8,0,0.8,6,1.5,comp,right,0.635045130093,1
2,177,8,0,0.2,6,-2.0,comp,left,0.576242050154,1
2,178,8,0,0.4,6,-1.5,comp,left,0.552704796793,1
2,179,8,0,0.0,6,-1.0,comp,left,0.552742358894,1
2,180,8,0,0.2,6,0.5,comp,left,0.635045130093,1
2,181,8,0,0.4,6,-0.5,comp,left,0.587985571556,1
2,182,8,0,0.0,6,2.0,comp,left,0.576251249035,1
2,183,8,0,0.2,6,1.0,comp,left,0.540963575115,1
2,184,8,0,0.8,6,0.5,comp,left,0.446896968317,1
2,185,8,0,0.2,6,1.5,comp,left,0.376297856699,1
2,186,8,0,0.8,6,1.5,comp,left,0.564508110921,1
2,187,8,0,0.2,6,-1.0,comp,left,0.57621215379,1
2,188,8,0,0.4,6,2.0,comp,left,0.588028116379,1
2,189,8,0,0.0,6,-2.0,comp,right,0.799805903613,1
2,190,8,0,0.6,6,1.5,comp,right,0.56448741344,1
2,191,8,0,0.6,6,0.0,comp,right,0.505700431542,1
2,192,8,0,0.6,6,-1.0,comp,right,0.729144316261,1
2,193,8,0,0.4,6,0.0,comp,right,0.588032715819,1
2,194,8,0,0.4,6,0.5,comp,right,0.352807747604,1
2,195,8,0,0.0,6,-1.5,comp,right,0.470400875734,1
2,196,8,0,0.8,6,1.0,comp,right,0.270495777522,1
2,197,8,0,0.8,6,0.0,comp,right,0.246950091854,1
2,198,8,0,0.0,6,1.5,comp,right,0.399854274394,1
2,199,8,0,0.4,6,1.5,comp,right,0.529198589658,1
2,200,8,0,0.4,6,1.0,comp,left,0.717409227167,1
2,201,8,0,0.6,6,-2.0,comp,left,0.823180260122,1
2,202,8,0,0.6,6,-0.5,comp,right,0.823212839492,1
2,203,8,0,0.8,6,-2.0,comp,right,1.25830266081,1
2,204,8,0,0.2,6,0.5,comp,right,0.646802833102,1
2,205,8,0,0.0,6,0.0,comp,right,0.59975783946,1
2,206,8,0,0.6,6,1.0,comp,right,0.470399342586,1
2,207,8,0,0.4,6,-2.0,comp,right,0.399812112855,1
2,208,8,0,0.0,6,-0.5,comp,right,0.717358250035,1
2,209,8,0,0.0,6,1.0,comp,right,0.799708932076,1
2,210,8,0,0.0,6,-1.0,comp,right,0.493895967555,1
2,211,8,0,0.2,6,-2.0,comp,right,0.482134814967,1
2,212,8,0,0.6,6,-1.5,comp,right,0.599767038339,1
2,213,8,0,0.4,6,-1.5,comp,right,0.552747341619,1
2,214,8,0,0.2,6,-1.5,comp,right,0.56439542463,1
2,215,8,0,0.4,6,-1.0,comp,right,0.470400875734,1
2,216,8,0,0.2,6,2.0,comp,right,0.458656204473,1
2,217,8,0,0.2,6,0.0,comp,right,0.576247032883,1
2,218,8,0,0.6,6,0.5,comp,right,0.670327821288,1
2,219,8,0,0.0,6,0.5,comp,right,0.482180809371,1
2,220,8,0,0.8,6,-1.0,comp,right,0.482177359791,1
2,221,8,0,0.8,6,2.0,comp,right,0.846693366419,1
2,222,8,0,0.8,6,-1.5,comp,left,0.823217438932,1
2,223,8,0,0.6,6,2.0,comp,right,0.646797467087,1
2,224,8,0,0.8,6,-0.5,comp,left,1.45826831833,1
2,225,8,0,0.2,6,-0.5,comp,right,0.646787501633,1
2,226,8,0,0.8,6,2.0,comp,right,0.929052480766,1
2,227,8,0,0.6,6,-2.0,comp,left,0.588035782113,1
2,228,8,0,0.2,6,0.0,comp,right,0.646831962891,1
2,229,8,0,0.2,6,-1.5,comp,left,0.787930148297,1
2,230,8,0,0.8,6,0.0,comp,right,0.552697897634,1
2,231,8,0,0.4,6,1.5,comp,right,1.02314055162,1
2,232,8,0,0.4,6,-1.5,comp,right,0.799570182287,1
2,233,8,0,0.0,6,2.0,comp,right,0.623247565267,1
2,234,8,0,0.8,6,1.0,comp,right,0.95259969958,1
2,235,8,0,0.0,6,0.0,comp,right,0.729137800387,1
2,236,8,0,0.6,6,0.0,comp,right,1.71700524298,1
2,237,8,0,0.6,6,0.5,comp,right,3.30463014174,1
2,238,8,0,0.6,6,1.0,comp,left,0.787903318227,1
2,239,8,0,0.0,6,-1.5,comp,left,0.576284211693,1
2,240,8,0,0.0,6,-2.0,comp,left,1.24657485417,1
2,241,8,0,0.0,6,-0.5,comp,left,0.693810647934,1
2,242,8,0,0.6,6,-1.0,comp,left,0.57623323456,1
2,243,8,0,0.4,6,-2.0,comp,left,0.905513694261,1
2,244,8,0,0.0,6,0.5,comp,right,0.682079774995,1
2,245,8,0,0.4,6,1.0,comp,right,0.940800601606,1
2,246,8,0,0.6,6,-1.5,comp,left,1.28184029746,1
2,247,8,0,0.8,6,-2.0,comp,left,1.12897482688,1
2,248,8,0,0.8,6,-0.5,comp,right,0.670312489819,1
2,249,8,0,0.4,6,0.0,comp,right,1.59939831653,1
2,250,8,0,0.4,6,2.0,comp,right,0.646809348975,1
2,251,8,0,0.0,6,1.5,comp,right,0.729215990874,1
2,252,8,0,0.0,6,-1.0,comp,left,0.682085907581,1
2,253,8,0,0.4,6,0.5,comp,right,0.776195059205,1
2,254,8,0,0.6,6,2.0,comp,right,1.01135218567,1
2,255,8,0,0.8,6,-1.5,comp,left,0.952556771468,1
2,256,8,0,0.2,6,0.5,comp,right,0.764436589623,1
2,257,8,0,0.2,6,-0.5,comp,left,0.705608212762,1
2,258,8,0,0.4,6,-1.0,comp,right,1.30541319648,1
2,259,8,0,0.2,6,1.5,comp,left,1.81107759908,1
2,260,8,0,0.2,6,-2.0,comp,left,0.799695900327,1
2,261,8,0,0.8,6,0.5,comp,left,0.905499129363,1
2,262,8,0,0.8,6,1.5,comp,left,0.705603996606,1
2,263,8,0,0.2,6,1.0,comp,left,0.540966258122,1
2,264,8,0,0.6,6,1.5,comp,left,0.493906699583,1
2,265,8,0,0.6,6,-0.5,comp,left,0.540949393508,1
2,266,8,0,0.2,6,-1.0,comp,left,0.399553777617,1
2,267,8,0,0.4,6,-0.5,comp,left,0.55271246253,1
2,268,8,0,0.2,6,2.0,comp,left,0.482153212728,1
2,269,8,0,0.0,6,1.0,comp,left,0.411587447055,1
2,270,8,0,0.8,6,-1.0,comp,left,0.49394426168,1
3,1,8,180,0.0,6,-0.5,comp,left,3.15172212634,1
3,2,8,0,0.0,6,1.0,comp,right,0.999637027489,1
3,3,8,0,0.2,6,0.5,comp,right,0.976093641542,1
3,4,8,180,0.4,6,-2.0,comp,right,0.84670371516,1
3,5,8,0,0.6,6,2.0,comp,right,0.717387379826,1
3,6,8,0,0.2,6,-2.0,comp,left,0.693843227305,1
3,7,8,180,0.4,6,1.0,comp,right,0.764383312769,1
3,8,8,0,0.4,6,-0.5,comp,left,1.2230464164,1
3,9,8,0,0.2,6,2.0,comp,right,0.717376264511,1
3,10,8,180,0.4,6,-1.0,comp,right,0.858467550755,1
3,11,8,0,0.8,6,-1.5,comp,left,0.752629825916,1
3,12,8,0,0.4,6,-2.0,comp,left,0.658542521636,1
3,13,8,180,0.0,6,0.5,comp,right,1.02313096945,1
3,14,8,0,0.4,6,2.0,comp,right,0.564485880293,1
3,15,8,180,0.0,6,1.0,comp,left,0.682076325415,1
3,16,8,180,0.2,6,0.0,comp,left,0.68205486136,1
3,17,8,180,0.2,6,-2.0,comp,left,0.740857941297,1
3,18,8,0,0.2,6,-1.0,comp,left,1.18779208843,1
3,19,8,0,0.8,6,2.0,comp,left,0.823208623338,1
3,20,8,0,0.6,6,0.0,comp,right,0.599782369809,1
3,21,8,180,0.6,6,0.5,comp,left,1.76399925949,1
3,22,8,180,0.4,6,2.0,comp,left,0.776138716059,1
3,23,8,0,0.2,6,1.0,comp,right,1.19951107948,1
3,24,8,0,0.2,6,-1.5,comp,left,0.71736706563,1
3,25,8,180,0.6,6,-0.5,comp,left,1.19955094129,1
3,26,8,0,0.6,6,0.5,comp,right,0.976092108396,1
3,27,8,180,0.4,6,1.5,comp,left,0.740922333465,1
3,28,8,0,0.4,6,1.5,comp,right,0.717365149198,1
3,29,8,0,0.6,6,1.5,comp,left,0.740923866611,1
3,30,8,0,0.2,6,-0.5,comp,right,0.776163629695,1
3,31,8,180,0.4,6,0.5,comp,left,0.564469782252,1
3,32,8,0,0.8,6,-1.0,comp,right,1.89339186888,1
3,33,8,180,0.6,6,1.0,comp,left,0.917286728736,1
3,34,8,0,0.4,6,-1.5,comp,right,1.44648953455,1
3,35,8,180,0.8,6,0.0,comp,left,0.740925016473,1
3,36,8,0,0.0,6,-1.5,comp,left,0.940811333634,1
3,37,8,0,0.0,6,-1.0,comp,left,1.25833715662,1
3,38,8,0,0.8,6,-2.0,comp,left,0.987852111124,1
3,39,8,180,0.0,6,0.0,comp,left,0.811447470749,1
3,40,8,0,0.4,6,-1.0,comp,left,0.834949461731,1
3,41,8,180,0.0,6,-2.0,comp,right,0.75267122088,1
3,42,8,180,0.2,6,-0.5,comp,left,0.752666621438,1
3,43,8,0,0.6,6,-1.5,comp,left,0.905532858595,1
3,44,8,180,0.8,6,-0.5,comp,left,0.740893970249,1
3,45,8,0,0.0,6,0.5,comp,right,1.01138974777,1
3,46,8,180,0.2,6,2.0,comp,left,0.599751323585,1
3,47,8,0,0.0,6,-2.0,comp,left,0.658557853103,1
3,48,8,0,0.0,6,-0.5,comp,right,0.752677736753,1
3,49,8,0,0.4,6,0.0,comp,right,0.787899102075,1
3,50,8,180,0.4,6,-1.5,comp,right,0.72910483773,1
3,51,8,180,0.2,6,1.5,comp,left,0.623270179181,1
3,52,8,180,0.0,6,-1.5,comp,right,0.787867289277,1
3,53,8,0,0.2,6,1.5,comp,right,0.705615111921,1
3,54,8,180,0.8,6,1.5,comp,left,0.623317706733,1
3,55,8,0,0.6,6,1.0,comp,left,0.811422173825,1
3,56,8,0,0.0,6,2.0,comp,right,0.635021366317,1
3,57,8,0,0.6,6,-0.5,comp,left,0.576242816727,1
3,58,8,180,0.8,6,-1.5,comp,right,0.729117102905,1
3,59,8,180,0.6,6,-2.0,comp,left,2.1521153785,1
3,60,8,180,0.8,6,2.0,comp,left,0.658570118279,1
3,61,8,180,0.6,6,0.0,comp,right,1.71699719396,1
3,62,8,0,0.6,6,-2.0,comp,left,0.776160563402,1
3,63,8,0,0.8,6,1.0,comp,right,0.623289343519,1
3,64,8,180,0.2,6,1.0,comp,left,0.611520525195,1
3,65,8,0,0.8,6,0.5,comp,right,0.623281677783,1
3,66,8,0,0.4,6,1.0,comp,right,0.576244733162,1
3,67,8,180,0.0,6,-1.0,comp,left,0.540960508821,1
3,68,8,180,0.0,6,2.0,comp,left,0.670312489819,1
3,69,8,180,0.4,6,0.0,comp,left,0.540991171756,1
3,70,8,0,0.0,6,0.0,comp,right,0.55270671323,1
3,71,8,180,0.6,6,-1.5,comp,left,0.564499678614,1
3,72,8,0,0.8,6,1.5,comp,right,0.411600478801,1
3,73,8,180,0.8,6,-2.0,comp,left,0.540943644206,1
3,74,8,180,0.8,6,1.0,comp,left,0.482175826644,1
3,75,8,0,0.2,6,0.0,comp,right,0.293998918365,1
3,76,8,180,0.6,6,-1.0,comp,left,0.399819395303,1
3,77,8,180,0.2,6,-1.5,comp,right,0.482196907413,1
3,78,8,180,0.8,6,0.5,comp,left,1.10547475233,1
3,79,8,180,0.8,6,-1.0,comp,left,0.493921647765,1
3,80,8,0,0.4,6,0.5,comp,right,0.540986572316,1
3,81,8,0,0.6,6,-1.0,comp,right,0.646802449815,1
3,82,8,180,0.6,6,1.5,comp,left,0.48213558154,1
3,83,8,0,0.8,6,0.0,comp,right,0.552751941059,1
3,84,8,180,0.2,6,0.5,comp,left,0.458659654052,1
3,85,8,0,0.8,6,-0.5,comp,right,0.493922031052,1
3,86,8,0,0.0,6,1.5,comp,right,0.540943644206,1
3,87,8,180,0.4,6,-0.5,comp,left,0.399839709498,1
3,88,8,180,0.2,6,-1.0,comp,left,2.199161522,1
3,89,8,180,0.0,6,1.5,comp,left,0.529211621408,1
3,90,8,180,0.6,6,2.0,comp,left,0.599768571486,1
3,91,8,0,0.8,6,0.0,comp,left,0.540960508821,1
3,92,8,180,0.4,6,-1.5,comp,left,0.764409376266,1
3,93,8,180,0.0,6,1.0,comp,left,0.399855040967,1
3,94,8,180,0.4,6,1.5,comp,left,0.305747422493,1
3,95,8,0,0.2,6,-1.5,comp,left,0.270473930181,1
3,96,8,0,0.4,6,-2.0,comp,right,0.529203572385,1
3,97,8,180,0.4,6,-0.5,comp,left,0.540922180149,1
3,98,8,0,0.8,6,1.5,comp,right,0.42338041244,1
3,99,8,180,0.2,6,-0.5,comp,left,0.399860790269,1
3,100,8,0,0.2,6,2.0,comp,right,0.35277210194,1
3,101,8,0,0.6,6,0.5,comp,right,0.529221970146,1
3,102,8,180,0.2,6,1.0,comp,left,0.493936979232,1
3,103,8,0,0.2,6,1.5,comp,right,2.16385353388,1
3,104,8,180,0.0,6,-2.0,comp,right,0.611485262818,1
3,105,8,180,0.0,6,-1.5,comp,right,0.552695214627,1
3,106,8,0,0.0,6,-0.5,comp,right,0.858443403693,1
3,107,8,180,0.4,6,0.5,comp,right,1.07019934358,1
3,108,8,180,0.8,6,2.0,comp,left,0.717362849477,1
3,109,8,0,0.0,6,2.0,comp,right,0.964325973078,1
3,110,8,180,0.8,6,0.5,comp,right,1.77579299145,1
3,111,8,0,0.4,6,0.5,comp,right,0.752629825914,1
3,112,8,0,0.6,6,1.5,comp,right,0.999594482664,1
3,113,8,180,0.8,6,-1.0,comp,left,0.705567967656,1
3,114,8,0,0.4,6,-1.5,comp,left,0.834988556975,1
3,115,8,180,0.0,6,2.0,comp,left,0.764432756756,1
3,116,8,0,0.0,6,0.0,comp,right,0.693850509753,1
3,117,8,180,0.8,6,-2.0,comp,left,0.740923100038,1
3,118,8,0,0.4,6,-0.5,comp,left,1.27012322284,1
3,119,8,180,0.8,6,1.5,comp,left,0.740904318989,1
3,120,8,180,0.2,6,1.5,comp,left,0.576261981063,1
3,121,8,0,0.8,6,1.0,comp,left,0.799683635152,1
3,122,8,0,0.4,6,0.0,comp,left,0.717370131923,1
3,123,8,180,0.4,6,-1.0,comp,left,0.705590198286,1
3,124,8,0,0.2,6,-1.0,comp,right,0.670333953874,1
3,125,8,180,0.2,6,-1.5,comp,left,0.68211312094,1
3,126,8,0,0.0,6,-1.0,comp,right,1.04664675876,1
3,127,8,180,0.8,6,-1.5,comp,right,0.71736706563,1
3,128,8,0,0.6,6,1.0,comp,left,0.764423557874,1
3,129,8,180,0.8,6,0.0,comp,left,1.01139511378,1
3,130,8,180,0.2,6,-1.0,comp,left,0.870256299988,1
3,131,8,180,0.2,6,0.0,comp,left,0.787921332703,1
3,132,8,180,0.2,6,0.5,comp,left,0.752675437032,1
3,133,8,0,0.0,6,-1.5,comp,right,1.48176456001,1
3,134,8,180,0.0,6,-0.5,comp,left,0.881982573486,1
3,135,8,0,0.6,6,-2.0,comp,left,1.04666783952,1
3,136,8,180,0.6,6,1.0,comp,right,0.752644774097,1
3,137,8,180,0.6,6,-1.5,comp,left,0.729116336332,1
3,138,8,0,0.4,6,-1.0,comp,right,1.10548011834,1
3,139,8,180,0.6,6,0.5,comp,left,0.940813250068,1
3,140,8,0,0.8,6,-1.0,comp,right,0.905509478105,1
3,141,8,180,0.6,6,-0.5,comp,left,0.670322455273,1
3,142,8,180,0.0,6,0.0,comp,left,0.693846676886,1
3,143,8,0,0.0,6,-2.0,comp,right,2.61074551947,1
3,144,8,0,0.8,6,2.0,comp,left,0.658566668697,1
3,145,8,0,0.8,6,-2.0,comp,right,0.623285127365,1
3,146,8,0,0.4,6,1.0,comp,left,0.623287427085,1
3,147,8,0,0.6,6,-1.5,comp,right,2.6578315248,1
3,148,8,0,0.2,6,1.0,comp,right,0.893859861948,1
3,149,8,0,0.8,6,0.5,comp,left,1.14077047527,1
3,150,8,180,0.0,6,-1.0,comp,left,1.17597650912,1
3,151,8,180,0.4,6,-2.0,comp,right,0.776165162841,1
3,152,8,180,0.4,6,1.0,comp,right,0.870245567961,1
3,153,8,0,0.2,6,0.5,comp,right,0.846757758585,1
3,154,8,180,0.6,6,1.5,comp,right,0.717344835,1
3,155,8,180,0.0,6,1.5,comp,right,0.870128665514,1
3,156,8,0,0.6,6,0.0,comp,left,1.45826448546,1
3,157,8,0,0.0,6,1.0,comp,left,0.999629361755,1
3,158,8,180,0.2,6,2.0,comp,right,0.682085907583,1
3,159,8,180,0.6,6,0.0,comp,right,1.59938643464,1
3,160,8,0,0.8,6,-0.5,comp,left,0.682093573318,1
3,161,8,0,0.6,6,-1.0,comp,left,0.505718446017,1
3,162,8,180,0.4,6,2.0,comp,right,0.529181341757,1
3,163,8,180,0.6,6,2.0,comp,left,1.03489135547,1
3,164,8,0,0.6,6,-0.5,comp,right,0.693826745977,1
3,165,8,0,0.2,6,-2.0,comp,left,0.893805818521,1
3,166,8,0,0.2,6,0.0,comp,left,0.540978140009,1
3,167,8,180,0.8,6,-0.5,comp,left,0.905529025727,1
3,168,8,0,0.0,6,0.5,comp,right,0.693830578843,1
3,169,8,0,0.8,6,-1.5,comp,right,1.01136751714,1
3,170,8,180,0.6,6,-2.0,comp,right,0.740881321788,1
3,171,8,180,0.6,6,-1.0,comp,left,1.22304296682,1
3,172,8,0,0.4,6,1.5,comp,right,0.776175511583,1
3,173,8,0,0.6,6,2.0,comp,right,0.623304291699,1
3,174,8,180,0.2,6,-2.0,comp,left,0.787949312633,1
3,175,8,180,0.8,6,1.0,comp,right,0.834949461732,1
3,176,8,0,0.0,6,1.5,comp,right,1.24660896669,1
3,177,8,180,0.0,6,0.5,comp,right,1.02315511651,1
3,178,8,0,0.2,6,-0.5,comp,right,0.599801534143,1
3,179,8,180,0.4,6,0.0,comp,left,0.870247484394,1
3,180,8,0,0.4,6,2.0,comp,right,0.72910023829,1
3,181,8,0,0.0,6,-2.0,comp,left,0.70560246346,1
3,182,8,0,0.2,6,-1.5,comp,left,0.9996193963,1
3,183,8,180,0.4,6,1.5,comp,left,0.823215905784,1
3,184,8,180,0.4,6,-1.5,comp,left,2.51669041128,1
3,185,8,0,0.0,6,-1.0,comp,right,0.870248634254,1
3,186,8,180,0.4,6,0.5,comp,right,0.799715831236,1
3,187,8,0,0.2,6,0.5,comp,right,0.846734378096,1
3,188,8,0,0.4,6,1.0,comp,right,0.670365766671,1
3,189,8,180,0.6,6,0.5,comp,left,0.79966408753,1
3,190,8,180,0.6,6,2.0,comp,left,0.717347518008,1
3,191,8,180,0.6,6,-2.0,comp,right,0.517425555181,1
3,192,8,180,0.2,6,-1.5,comp,right,0.588021983793,1
3,193,8,180,0.2,6,1.0,comp,left,0.576240900295,1
3,194,8,0,0.2,6,-0.5,comp,right,0.82322932082,1
3,195,8,180,0.2,6,-0.5,comp,right,0.670347752197,1
3,196,8,180,0.0,6,0.0,comp,right,0.576270796659,1
3,197,8,0,0.4,6,0.5,comp,right,0.881987939501,1
3,198,8,0,0.6,6,1.0,comp,right,0.870242118379,1
3,199,8,0,0.8,6,1.0,comp,left,0.564480130992,1
3,200,8,0,0.8,6,1.5,comp,right,0.893769023,1
3,201,8,0,0.6,6,0.5,comp,left,0.552699814069,1
3,202,8,180,0.8,6,2.0,comp,left,0.646776003032,1
3,203,8,180,0.8,6,-1.0,comp,right,0.623292409811,1
3,204,8,0,0.2,6,-2.0,comp,left,1.28183876431,1
3,205,8,0,0.4,6,-1.0,comp,left,0.964363151888,1
3,206,8,180,0.4,6,-0.5,comp,right,0.670306740518,1
3,207,8,180,0.0,6,-1.0,comp,right,0.799659104803,1
3,208,8,180,0.4,6,1.0,comp,left,0.611524741349,1
3,209,8,180,0.0,6,1.0,comp,right,0.882017452575,1
3,210,8,0,0.0,6,0.0,comp,left,0.658536005762,1
3,211,8,0,0.8,6,-1.5,comp,left,0.564487796728,1
3,212,8,180,0.6,6,1.0,comp,right,0.811426389979,1
3,213,8,0,0.2,6,0.0,comp,right,0.776184327178,1
3,214,8,0,0.0,6,2.0,comp,right,0.91729554433,1
3,215,8,180,0.0,6,1.5,comp,left,0.646834645899,1
3,216,8,0,0.6,6,-1.0,comp,left,0.693835944858,1
3,217,8,0,0.2,6,1.0,comp,right,2.68137414417,1
3,218,8,180,0.8,6,1.5,comp,left,0.717391595977,1
3,219,8,0,0.4,6,2.0,comp,right,0.529229252596,1
3,220,8,180,0.6,6,-1.5,comp,right,0.646866458696,1
3,221,8,0,0.6,6,-0.5,comp,right,0.87023751894,1
3,222,8,0,0.8,6,-0.5,comp,right,0.799694367181,1
3,223,8,0,0.8,6,-1.0,comp,right,1.74051221669,1
3,224,8,0,0.2,6,2.0,comp,right,1.31716323376,1
3,225,8,0,0.6,6,1.5,comp,right,0.540937894904,1
3,226,8,180,0.2,6,-2.0,comp,left,0.670308273666,1
3,227,8,0,0.4,6,0.0,comp,right,0.576229018407,1
3,228,8,0,0.0,6,-1.5,comp,left,0.776170912142,1
3,229,8,180,0.8,6,-0.5,comp,left,0.764437739481,1
3,230,8,180,0.6,6,1.5,comp,left,0.764379479902,1
3,231,8,0,0.4,6,-2.0,comp,left,1.24656067256,1
3,232,8,180,0.4,6,2.0,comp,left,0.670328204575,1
3,233,8,0,0.6,6,2.0,comp,right,0.623302758553,1
3,234,8,180,0.2,6,0.0,comp,right,1.24655913941,1
3,235,8,180,0.8,6,-2.0,comp,right,2.3402888372,1
3,236,8,0,0.4,6,-0.5,comp,left,0.940802134754,1
3,237,8,180,0.4,6,-1.0,comp,right,0.74089013738,1
3,238,8,0,0.8,6,0.5,comp,left,0.693820996676,1
3,239,8,0,0.0,6,1.5,comp,left,0.470430005522,1
3,240,8,0,0.6,6,-1.5,comp,left,0.740794698992,1
3,241,8,0,0.0,6,-0.5,comp,left,0.505674751334,1
3,242,8,180,0.0,6,-2.0,comp,left,0.611561153586,1
3,243,8,180,0.6,6,0.0,comp,left,0.458636656851,1
3,244,8,0,0.8,6,-2.0,comp,left,0.493899800422,1
3,245,8,180,0.0,6,-1.5,comp,left,0.458655054612,1
3,246,8,0,0.8,6,2.0,comp,left,0.52921928714,1
3,247,8,0,0.8,6,0.0,comp,left,0.470436904683,1
3,248,8,0,0.2,6,-1.0,comp,left,0.388111902854,1
3,249,8,180,0.0,6,2.0,comp,right,0.635076559603,1
3,250,8,180,0.8,6,0.0,comp,right,0.51741175686,1
3,251,8,180,0.2,6,2.0,comp,right,0.41159242978,1
3,252,8,180,0.0,6,-0.5,comp,right,0.540978523295,1
3,253,8,180,0.2,6,-1.0,comp,right,0.717372048357,1
3,254,8,180,0.6,6,-1.0,comp,right,0.376331969217,1
3,255,8,0,0.4,6,1.5,comp,right,0.423385395166,1
3,256,8,0,0.0,6,1.0,comp,right,0.446876654121,1
3,257,8,0,0.4,6,-1.5,comp,right,0.317494010187,1
3,258,8,180,0.6,6,-0.5,comp,right,0.329302690328,1
3,259,8,180,0.8,6,0.5,comp,right,0.305778468715,1
3,260,8,180,0.2,6,0.5,comp,right,0.482165094618,1
3,261,8,180,0.0,6,0.5,comp,left,0.329299624034,1
3,262,8,180,0.4,6,0.0,comp,left,0.435117801253,1
3,263,8,180,0.8,6,-1.5,comp,left,0.364552802152,1
3,264,8,0,0.0,6,0.5,comp,left,0.552717445256,1
3,265,8,180,0.4,6,-2.0,comp,left,0.458648538737,1
3,266,8,0,0.6,6,-2.0,comp,left,0.482182342519,1
3,267,8,180,0.2,6,1.5,comp,left,0.446890452442,1
3,268,8,0,0.6,6,0.0,comp,left,0.57623438442,1
3,269,8,180,0.8,6,1.0,comp,left,0.458733245101,1
3,270,8,0,0.2,6,1.5,comp,left,2.49317615512,1
4,1,8,0,0.8,6,-1.0,comp,left,0.893800452508,1
4,2,8,0,0.4,6,-2.0,comp,right,0.917292861322,1
4,3,8,0,0.0,6,0.5,comp,right,0.470376345385,1
4,4,8,0,0.0,6,0.0,comp,right,0.446879337129,1
4,5,8,180,0.8,6,-0.5,comp,left,0.846717130193,1
4,6,8,180,0.4,6,1.0,comp,left,0.599755156451,1
4,7,8,180,0.4,6,0.0,comp,right,0.705642325278,1
4,8,8,180,0.0,6,-2.0,comp,right,0.564501211762,1
4,9,8,180,0.8,6,-1.0,comp,right,0.517420955741,1
4,10,8,180,0.6,6,2.0,comp,left,0.693838244577,1
4,11,8,180,0.0,6,0.5,comp,left,0.552686399034,1
4,12,8,0,0.8,6,1.0,comp,right,0.517466183574,1
4,13,8,0,0.8,6,-1.5,comp,right,0.505680500635,1
4,14,8,180,0.8,6,1.5,comp,left,0.552725877564,1
4,15,8,180,0.4,6,-2.0,comp,right,0.693876189962,1
4,16,8,0,0.6,6,1.5,comp,right,0.705616261783,1
4,17,8,0,0.8,6,2.0,comp,right,0.623256380863,1
4,18,8,180,0.2,6,-0.5,comp,right,0.599795401557,1
4,19,8,0,0.4,6,0.5,comp,right,0.540981972876,1
4,20,8,0,0.4,6,-1.0,comp,right,0.482146696855,1
4,21,8,180,0.4,6,0.5,comp,right,0.929056313633,1
4,22,8,0,0.4,6,0.0,comp,right,0.576248949315,1
4,23,8,0,0.6,6,1.0,comp,right,0.399844692227,1
4,24,8,180,0.6,6,1.5,comp,left,0.599792718549,1
4,25,8,0,0.0,6,-0.5,comp,right,0.705623160944,1
4,26,8,0,0.2,6,-0.5,comp,right,0.599764738619,1
4,27,8,180,0.4,6,-1.0,comp,right,0.693875806674,1
4,28,8,0,0.2,6,-1.0,comp,left,2.52845271373,1
4,29,8,180,0.2,6,1.5,comp,right,0.905532858595,1
4,30,8,0,0.4,6,2.0,comp,right,0.635047429814,1
4,31,8,180,0.2,6,-1.5,comp,right,0.740889370809,1
4,32,8,180,0.2,6,-1.0,comp,left,0.682111204505,1
4,33,8,180,0.0,6,-0.5,comp,right,0.787915966688,1
4,34,8,180,0.6,6,-1.5,comp,right,0.881990622507,1
4,35,8,180,0.4,6,1.5,comp,left,0.670346985622,1
4,36,8,0,0.8,6,-0.5,comp,right,0.458630524265,1
4,37,8,0,0.8,6,-2.0,comp,right,0.70558291584,1
4,38,8,0,0.0,6,-1.5,comp,right,0.540965874834,1
4,39,8,0,0.2,6,-2.0,comp,right,0.411569432579,1
4,40,8,180,0.4,6,-1.5,comp,right,0.482159728603,1
4,41,8,180,0.4,6,-0.5,comp,right,0.470423872935,1
4,42,8,180,0.2,6,-2.0,comp,right,0.576301459594,1
4,43,8,180,0.8,6,0.5,comp,right,0.411613893837,1
4,44,8,0,0.6,6,-1.0,comp,right,1.44651061532,1
4,45,8,180,0.2,6,0.0,comp,left,1.01137249987,1
4,46,8,180,0.6,6,0.0,comp,right,0.682074408982,1
4,47,8,0,0.4,6,1.0,comp,left,0.564490479734,1
4,48,8,180,0.0,6,-1.0,comp,right,0.388096954674,1
4,49,8,180,0.4,6,2.0,comp,left,0.493956910143,1
4,50,8,0,0.4,6,1.5,comp,right,0.740869056612,1
4,51,8,180,0.0,6,-1.5,comp,left,0.823249635016,1
4,52,8,0,0.2,6,0.5,comp,left,0.70564040884300006,1
4,53,8,0,0.8,6,0.5,comp,left,0.57623438442,1
4,54,8,0,0.2,6,2.0,comp,right,0.705620477935,1
4,55,8,180,0.0,6,1.0,comp,left,1.30540284774,1
4,56,8,180,0.2,6,1.0,comp,left,0.552708629661,1
4,57,8,180,0.8,6,1.0,comp,left,0.658574334431,1
4,58,8,0,0.2,6,0.0,comp,right,0.823235836695,1
4,59,8,180,0.8,6,-1.5,comp,right,0.717376264511,1
4,60,8,0,0.0,6,-1.0,comp,right,0.787917883123,1
4,61,8,0,0.2,6,-1.5,comp,left,0.693807198353,1
4,62,8,180,0.8,6,-2.0,comp,left,0.799679418998,1
4,63,8,180,0.6,6,-2.0,comp,right,0.505663252732,1
4,64,8,180,0.6,6,1.0,comp,right,0.435144248037,1
4,65,8,180,0.0,6,0.0,comp,right,0.67034851877,1
4,66,8,0,0.8,6,0.0,comp,right,3.65743673949,1
4,67,8,180,0.0,6,2.0,comp,left,0.658628761144,1
4,68,8,0,0.6,6,0.5,comp,right,0.59974250799,1
4,69,8,0,0.4,6,-1.5,comp,left,0.705582915838,1
4,70,8,0,0.0,6,2.0,comp,right,0.646805899396,1
4,71,8,0,0.2,6,1.5,comp,right,0.599757072885,1
4,72,8,0,0.0,6,-2.0,comp,left,0.776166695989,1
4,73,8,0,0.0,6,1.0,comp,right,0.599791951974,1
4,74,8,180,0.6,6,-1.0,comp,left,0.646803599675,1
4,75,8,180,0.8,6,2.0,comp,left,0.576247416169,1
4,76,8,0,0.0,6,1.5,comp,right,0.576230168266,1
4,77,8,0,0.6,6,-2.0,comp,left,0.787907917669,1
4,78,8,0,0.6,6,0.0,comp,right,0.834970159212,1
4,79,8,180,0.6,6,-0.5,comp,right,0.493959593148,1
4,80,8,0,0.2,6,1.0,comp,right,0.729130901227,1
4,81,8,0,0.6,6,2.0,comp,right,0.517414823153,1
4,82,8,0,0.4,6,-0.5,comp,right,0.823182559841,1
4,83,8,180,0.0,6,1.5,comp,left,0.576240900295,1
4,84,8,180,0.2,6,0.5,comp,left,0.352774401661,1
4,85,8,0,0.6,6,-0.5,comp,left,2.69312494802,1
4,86,8,0,0.8,6,1.5,comp,right,0.493908232729,1
4,87,8,180,0.6,6,0.5,comp,left,0.646780219186,1
4,88,8,0,0.6,6,-1.5,comp,right,0.811431755994,1
4,89,8,180,0.2,6,2.0,comp,left,0.5409524598,1
4,90,8,180,0.8,6,0.0,comp,left,0.51744433623,1
4,91,8,0,0.2,6,0.0,comp,right,0.55268908204,1
4,92,8,180,0.8,6,-1.0,comp,left,0.811466635083,1
4,93,8,180,0.8,6,2.0,comp,left,0.552924036791,1
4,94,8,0,0.6,6,1.5,comp,right,0.52918900749,1
4,95,8,180,0.0,6,1.0,comp,left,0.482180809371,1
4,96,8,0,0.0,6,-2.0,comp,right,0.482151679582,1
4,97,8,180,0.0,6,-1.5,comp,left,0.470429238951,1
4,98,8,180,0.8,6,-1.5,comp,right,0.458663486919,1
4,99,8,180,0.2,6,-0.5,comp,left,0.423337867616,1
4,100,8,180,0.4,6,2.0,comp,left,0.446865538808,1
4,101,8,0,0.6,6,-1.5,comp,right,0.364594197115,1
4,102,8,180,0.4,6,-1.5,comp,left,0.74103578633,1
4,103,8,180,0.8,6,0.5,comp,left,0.458640106432,1
4,104,8,180,0.4,6,-1.0,comp,left,0.376323153621,1
4,105,8,0,0.6,6,-1.0,comp,right,0.588007802184,1
4,106,8,0,0.6,6,2.0,comp,left,0.458637423424,1
4,107,8,0,0.4,6,1.0,comp,right,0.423394594049,1
4,108,8,180,0.6,6,1.0,comp,left,0.423357798525,1
4,109,8,0,0.0,6,1.5,comp,right,0.482147846715,1
4,110,8,0,0.2,6,-0.5,comp,right,0.693844377165,1
4,111,8,180,0.0,6,-0.5,comp,left,0.540998454204,1
4,112,8,180,0.4,6,-0.5,comp,left,0.517447785809,1
4,113,8,0,0.6,6,-2.0,comp,right,0.270493094515,1
4,114,8,0,0.4,6,-2.0,comp,left,0.246959674023,1
4,115,8,0,0.0,6,-0.5,comp,right,0.388063992015,1
4,116,8,0,0.0,6,1.0,comp,left,0.423414141671,1
4,117,8,180,0.8,6,0.0,comp,right,0.588011635051,1
4,118,8,180,0.6,6,0.0,comp,right,0.470385160977,1
4,119,8,0,0.8,6,1.0,comp,left,0.576249332602,1
4,120,8,0,0.2,6,-2.0,comp,left,0.38811228614,1
4,121,8,0,0.2,6,-1.0,comp,left,0.505714996438,1
4,122,8,180,0.8,6,1.5,comp,right,0.364530954808,1
4,123,8,0,0.8,6,0.5,comp,left,0.364535554249,1
4,124,8,180,0.6,6,-1.0,comp,right,0.305789200744,1
4,125,8,0,0.2,6,1.5,comp,left,0.399865772995,1
4,126,8,0,0.8,6,-1.0,comp,right,0.329252479769,1
4,127,8,180,0.2,6,-2.0,comp,right,0.482319942446,1
4,128,8,0,0.6,6,0.5,comp,right,1.09368523652,1
4,129,8,180,0.8,6,-0.5,comp,right,0.599734458969,1
4,130,8,180,0.6,6,-0.5,comp,right,0.470402025594,1
4,131,8,0,0.2,6,1.0,comp,left,0.682077858562,1
4,132,8,0,0.2,6,2.0,comp,right,0.423340550622,1
4,133,8,180,0.2,6,1.5,comp,right,0.505629140214,1
4,134,8,180,0.4,6,1.5,comp,right,0.670335103734,1
4,135,8,0,0.8,6,2.0,comp,right,0.823247335295,1
4,136,8,0,0.4,6,0.5,comp,right,0.505656736857,1
4,137,8,0,0.8,6,-2.0,comp,right,0.799557533826,1
4,138,8,180,0.4,6,1.0,comp,left,0.540965491547,1
4,139,8,180,0.2,6,-1.5,comp,left,0.58799783673,1
4,140,8,180,0.8,6,-2.0,comp,left,0.399842775792,1
4,141,8,0,0.4,6,1.5,comp,left,0.423385395166,1
4,142,8,0,0.8,6,-0.5,comp,right,0.376330436069,1
4,143,8,0,0.4,6,-1.5,comp,right,0.505687016508,1
4,144,8,180,0.6,6,2.0,comp,left,0.423366997406,1
4,145,8,0,0.6,6,-0.5,comp,right,0.34105196103,1
4,146,8,0,0.0,6,2.0,comp,left,1.36418752992,1
4,147,8,0,0.4,6,2.0,comp,right,0.470433071816,1
4,148,8,180,0.4,6,-2.0,comp,left,0.47040010916,1
4,149,8,0,0.6,6,1.0,comp,right,0.529194756791,1
4,150,8,180,0.2,6,-1.0,comp,right,1.38770638552,1
4,151,8,180,0.2,6,1.0,comp,left,0.646797850373,1
4,152,8,180,0.6,6,1.5,comp,right,0.705584065699,1
4,153,8,180,0.0,6,0.0,comp,left,0.540932528891,1
4,154,8,180,0.6,6,-1.5,comp,left,0.364516773201,1
4,155,8,180,0.2,6,0.0,comp,right,0.399822844884,1
4,156,8,180,0.0,6,2.0,comp,left,0.38804482768,1
4,157,8,0,0.4,6,0.0,comp,right,0.611526274495,1
4,158,8,180,0.0,6,-2.0,comp,right,0.57623898386,1
4,159,8,0,0.0,6,0.0,comp,left,0.588015851206,1
4,160,8,0,0.8,6,-1.5,comp,left,0.893785121039,1
4,161,8,180,0.2,6,0.5,comp,left,0.740891287242,1
4,162,8,0,0.4,6,-1.0,comp,left,0.940815933074,1
4,163,8,180,0.2,6,2.0,comp,left,0.976131586925,1
4,164,8,0,0.2,6,-1.5,comp,left,0.976195595806,1
4,165,8,0,0.0,6,-1.0,comp,left,0.611485262818,1
4,166,8,0,0.0,6,0.5,comp,left,0.5409524598,1
4,167,8,0,0.8,6,0.0,comp,right,0.423366614119,1
4,168,8,180,0.6,6,-2.0,comp,left,0.31751700739,1
4,169,8,180,0.4,6,0.5,comp,left,1.01139549707,1
4,170,8,180,0.6,6,0.5,comp,left,1.04665020833,1
4,171,8,180,0.8,6,1.0,comp,left,0.529184024763,1
4,172,8,180,0.0,6,-1.0,comp,left,0.470425406082,1
4,173,8,0,0.0,6,-1.5,comp,right,0.705569117517,1
4,174,8,0,0.6,6,0.0,comp,right,0.470395893006,1
4,175,8,180,0.0,6,1.5,comp,left,0.37628022551,1
4,176,8,180,0.0,6,0.5,comp,left,0.411635357892,1
4,177,8,180,0.4,6,0.0,comp,left,3.19882729599,1
4,178,8,0,0.4,6,-0.5,comp,right,0.658538688769,1
4,179,8,0,0.8,6,1.5,comp,right,0.670420193384,1
4,180,8,0,0.2,6,0.5,comp,right,0.540958592388,1
4,181,8,180,0.6,6,1.5,comp,right,1.30538368341,1
4,182,8,180,0.8,6,-0.5,comp,right,1.32896194845,1
4,183,8,180,0.2,6,1.5,comp,left,0.823312877323,1
4,184,8,180,0.8,6,-1.5,comp,left,0.705626610523,1
4,185,8,180,0.4,6,2.0,comp,right,0.411626925585,1
4,186,8,180,0.0,6,1.5,comp,left,0.446903484191,1
4,187,8,180,0.0,6,1.0,comp,right,0.246978455072,1
4,188,8,180,0.8,6,1.0,comp,left,0.399807896702,1
4,189,8,180,0.6,6,-2.0,comp,left,0.423364697685,1
4,190,8,180,0.0,6,-0.5,comp,right,0.341023597814,1
4,191,8,180,0.8,6,2.0,comp,left,0.470396659581,1
4,192,8,0,0.4,6,0.5,comp,right,0.352838027255,1
4,193,8,0,0.6,6,2.0,comp,right,0.388084306211,1
4,194,8,180,0.4,6,1.0,comp,left,0.446870521535,1
4,195,8,180,0.2,6,0.0,comp,left,0.623309657714,1
4,196,8,180,0.0,6,2.0,comp,left,0.446905400626,1
4,197,8,180,0.8,6,0.0,comp,left,0.588030032814,1
4,198,8,0,0.8,6,0.5,comp,right,0.446907700345,1
4,199,8,0,0.4,6,1.5,comp,right,0.388095421526,1
4,200,8,0,0.6,6,-1.5,comp,right,0.24693092752,1
4,201,8,180,0.4,6,-1.0,comp,left,0.423387311601,1
4,202,8,0,0.2,6,0.0,comp,right,0.564503128195,1
4,203,8,0,0.2,6,1.0,comp,left,0.411627692158,1
4,204,8,0,0.0,6,-0.5,comp,right,0.47043613811,1
4,205,8,0,0.4,6,-1.0,comp,right,0.352794332568,1
4,206,8,0,0.4,6,2.0,comp,left,0.352787050122,1
4,207,8,0,0.2,6,0.5,comp,right,1.43476632734,1
4,208,8,0,0.0,6,1.5,comp,left,0.552765356093,1
4,209,8,180,0.2,6,0.5,comp,left,0.352833044526,1
4,210,8,180,0.2,6,-1.5,comp,left,0.47042693923,1
4,211,8,0,0.8,6,-1.5,comp,right,0.246958140875,1
4,212,8,180,0.2,6,-1.0,comp,left,0.517320534624,1
4,213,8,0,0.0,6,0.5,comp,right,0.435104002932,1
4,214,8,180,0.2,6,-0.5,comp,right,0.376328136348,1
4,215,8,180,0.8,6,-2.0,comp,right,0.576253932042,1
4,216,8,0,0.6,6,0.0,comp,right,0.376320087327,1
4,217,8,0,0.2,6,-0.5,comp,left,0.376285974811,1
4,218,8,180,0.0,6,0.5,comp,left,0.317527739417,1
4,219,8,180,0.0,6,-2.0,comp,right,0.446890069157,1
4,220,8,0,0.4,6,-2.0,comp,left,0.376361099006,1
4,221,8,0,0.4,6,-1.5,comp,right,1.99923649288,1
4,222,8,180,0.4,6,-0.5,comp,left,0.717340618847,1
4,223,8,0,0.8,6,-0.5,comp,left,0.341032413406,1
4,224,8,0,0.2,6,-2.0,comp,left,0.317491710466,1
4,225,8,180,0.0,6,-1.0,comp,left,0.399847758519,1
4,226,8,180,0.4,6,0.5,comp,left,0.258691696823,1
4,227,8,0,0.6,6,1.0,comp,left,0.317484044734,1
4,228,8,0,0.4,6,-0.5,comp,right,0.341043145434,1
4,229,8,0,0.6,6,-0.5,comp,right,0.599768954773,1
4,230,8,0,0.0,6,-1.5,comp,right,0.435099020204,1
4,231,8,180,0.6,6,0.5,comp,left,0.388083922924,1
4,232,8,0,0.8,6,1.0,comp,right,0.258705111855,1
4,233,8,0,0.8,6,0.0,comp,right,0.31751240795,1
4,234,8,180,0.8,6,0.5,comp,right,0.505667468886,1
4,235,8,0,0.8,6,-2.0,comp,right,0.399861173553,1
4,236,8,180,0.0,6,-1.5,comp,right,1.04667243896,1
4,237,8,180,0.4,6,-2.0,comp,left,0.564445251903,1
4,238,8,0,0.6,6,-2.0,comp,left,0.59979501827,1
4,239,8,180,0.2,6,2.0,comp,left,0.74091351787,1
4,240,8,180,0.6,6,2.0,comp,left,0.611542372537,1
4,241,8,180,0.2,6,-2.0,comp,left,0.411620026423,1
4,242,8,0,0.0,6,1.0,comp,right,2.04627458736,1
4,243,8,180,0.4,6,1.5,comp,right,0.693853192759,1
4,244,8,0,0.0,6,2.0,comp,left,1.0466513582,1
4,245,8,180,0.0,6,0.0,comp,right,0.540965491549,1
4,246,8,180,0.6,6,-0.5,comp,left,0.470428089091,1
4,247,8,0,0.6,6,0.5,comp,left,1.83457805691,1
4,248,8,180,0.4,6,0.0,comp,right,0.282184872211,1
4,249,8,0,0.8,6,1.5,comp,left,0.235174757658,1
4,250,8,180,0.4,6,-1.5,comp,right,0.282230100041,1
4,251,8,0,0.0,6,-1.0,comp,left,0.270511875564,1
4,252,8,180,0.6,6,0.0,comp,right,0.305757387947,1
4,253,8,0,0.8,6,2.0,comp,left,0.270519158012,1
4,254,8,0,0.0,6,0.0,comp,right,0.305741673192,1
4,255,8,180,0.8,6,1.5,comp,left,2.2697150225,1
4,256,8,0,0.8,6,-1.0,comp,right,0.682113887511,1
4,257,8,180,0.6,6,1.0,comp,left,0.411581697752,1
4,258,8,0,0.4,6,0.0,comp,right,0.352791649562,1
4,259,8,0,0.2,6,-1.0,comp,left,1.02314553435,1
4,260,8,0,0.6,6,-1.0,comp,left,0.564476298125,1
4,261,8,0,0.6,6,1.5,comp,left,0.517463500564,1
4,262,8,0,0.2,6,-1.5,comp,left,0.423366230832,1
4,263,8,180,0.2,6,1.0,comp,left,0.246932843953,1
4,264,8,180,0.8,6,-1.0,comp,left,0.376331585929,1
4,265,8,180,0.6,6,-1.0,comp,left,0.294011183538,1
4,266,8,0,0.2,6,1.5,comp,left,0.540951309938,1
4,267,8,0,0.4,6,1.0,comp,left,1.84637715488,1
4,268,8,0,0.2,6,2.0,comp,right,0.376320470616,1
4,269,8,180,0.6,6,-1.5,comp,left,0.564468249106,1
4,270,8,0,0.0,6,-2.0,comp,right,0.458659654052,1
1,1,8,180,0.0,6,-1.5,comp,right,0.776166695989,2
1,2,8,180,0.8,6,-1.5,comp,right,0.705590964859,2
1,3,8,180,0.0,6,2.0,comp,left,0.717343301854,2
1,4,8,180,0.6,6,0.5,comp,left,0.846752009285,2
1,5,8,180,0.6,6,1.0,comp,left,0.799703949349,2
1,6,8,180,0.0,6,-2.0,comp,right,0.705648457868,2
1,7,8,180,0.0,6,0.0,comp,left,0.658580467021,2
1,8,8,180,0.4,6,1.5,comp,left,0.729140866679,2
1,9,8,180,0.0,6,0.5,comp,left,0.705582532551,2
1,10,8,180,0.2,6,-1.0,comp,right,0.740911601439,2
1,11,8,180,0.6,6,-0.5,comp,left,0.84673744439,2
1,12,8,180,0.0,6,1.5,comp,left,0.693853576046,2
1,13,8,180,0.8,6,0.0,comp,right,0.987838312805,2
1,14,8,180,0.6,6,-1.5,comp,right,0.764387912212,2
1,15,8,180,0.2,6,-1.5,comp,right,0.729122852204,2
1,16,8,180,0.6,6,1.5,comp,left,0.670326288138,2
1,17,8,180,0.8,6,1.5,comp,left,0.693846676888,2
1,18,8,180,0.2,6,1.0,comp,left,0.635030948484,2
1,19,8,180,0.6,6,-1.0,comp,right,0.623284744077,2
1,20,8,180,0.8,6,0.5,comp,left,0.752674670461,2
1,21,8,180,0.0,6,-0.5,comp,right,0.811440954873,2
1,22,8,180,0.0,6,1.0,comp,left,0.67030980681,2
1,23,8,180,0.4,6,-2.0,comp,right,0.670256913243,2
1,24,8,180,0.0,6,-1.0,comp,right,0.740879022069,2
1,25,8,180,0.6,6,-2.0,comp,right,0.670335103736,2
1,26,8,180,0.2,6,0.5,comp,left,0.752649373535,2
1,27,8,180,0.2,6,2.0,comp,left,0.658581233594,2
1,28,8,180,0.8,6,-0.5,comp,right,0.611538156383,2
1,29,8,180,0.8,6,-1.0,comp,right,0.670332420726,2
1,30,8,180,0.8,6,-2.0,comp,right,0.611540456102,2
1,31,8,180,0.4,6,-0.5,comp,left,0.705645774859,2
1,32,8,180,0.2,6,1.5,comp,left,0.635051645968,2
1,33,8,180,0.4,6,2.0,comp,left,0.74089473682,2
1,34,8,180,0.4,6,0.5,comp,left,0.83495789404,2
1,35,8,180,0.8,6,1.0,comp,left,0.776173978436,2
1,36,8,180,0.2,6,-0.5,comp,right,0.658570118278,2
1,37,8,180,0.4,6,1.0,comp,left,0.611549654986,2
1,38,8,180,0.6,6,2.0,comp,left,0.635025199183,2
1,39,8,180,0.2,6,0.0,comp,right,0.552729710431,2
1,40,8,180,0.8,6,2.0,comp,left,0.635045130093,2
1,41,8,180,0.6,6,0.0,comp,left,0.764429307175,2
1,42,8,180,0.4,6,-1.0,comp,right,0.599785052818,2
1,43,8,180,0.4,6,0.0,comp,left,0.611512859461,2
1,44,8,180,0.2,6,-2.0,comp,right,0.62326596303,2
1,45,8,180,0.4,6,-1.5,comp,right,0.611499827712,2
1,46,8,180,0.6,6,0.0,comp,left,0.71737856423,2
1,47,8,180,0.2,6,1.5,comp,left,0.670344302613,2
1,48,8,180,0.4,6,0.5,comp,right,0.658567435272,2
1,49,8,180,0.2,6,-2.0,comp,right,0.588007418897,2
1,50,8,180,0.4,6,2.0,comp,left,0.646586659401,2
1,51,8,180,0.2,6,-1.5,comp,right,0.611497527992,2
1,52,8,180,0.8,6,-1.5,comp,right,0.529205105533,2
1,53,8,180,0.0,6,-0.5,comp,left,0.670330504294,2
1,54,8,180,0.6,6,2.0,comp,left,0.587959891345,2
1,55,8,180,0.4,6,1.0,comp,right,0.764448471509,2
1,56,8,180,0.4,6,-0.5,comp,right,0.588011635049,2
1,57,8,180,0.2,6,-0.5,comp,right,0.670322071986,2
1,58,8,180,0.8,6,1.5,comp,left,0.764408992982,2
1,59,8,180,0.8,6,2.0,comp,left,0.599732542534,2
1,60,8,180,0.2,6,-1.0,comp,right,0.682094723175,2
1,61,8,180,0.8,6,0.0,comp,left,0.752642474377,2
1,62,8,180,0.8,6,0.5,comp,left,0.729152365282,2
1,63,8,180,0.2,6,0.0,comp,right,0.7645872213,2
1,64,8,180,0.6,6,1.0,comp,left,0.670331654153,2
1,65,8,180,0.6,6,-2.0,comp,right,0.564462883089,2
1,66,8,180,0.4,6,0.0,comp,right,0.670305973945,2
1,67,8,180,0.0,6,0.0,comp,right,0.693848976607,2
1,68,8,180,0.6,6,1.5,comp,left,0.670343919326,2
1,69,8,180,0.2,6,2.0,comp,left,0.705633126396,2
1,70,8,180,0.0,6,-2.0,comp,right,0.529200506091,2
1,71,8,180,0.6,6,-1.0,comp,right,0.599785052818,2
1,72,8,180,0.4,6,1.5,comp,left,0.529236151753,2
1,73,8,180,0.8,6,-1.0,comp,right,0.529197823085,2
1,74,8,180,0.6,6,-0.5,comp,right,0.823213989352,2
1,75,8,180,0.6,6,0.5,comp,left,0.635044363516,2
1,76,8,180,0.2,6,1.0,comp,right,0.529191307211,2
1,77,8,180,0.6,6,-1.5,comp,right,0.599766271764,2
1,78,8,180,0.0,6,-1.0,comp,right,0.705575250104,2
1,79,8,180,0.0,6,1.0,comp,left,0.623290110092,2
1,80,8,180,0.4,6,-2.0,comp,right,0.54104904805,2
1,81,8,180,0.0,6,0.5,comp,left,0.564376643582,2
1,82,8,180,0.0,6,-1.5,comp,right,0.564492396166,2
1,83,8,180,0.0,6,2.0,comp,left,0.623283977504,2
1,84,8,180,0.4,6,-1.5,comp,right,0.588034248969,2
1,85,8,180,0.8,6,-0.5,comp,left,0.740849508991,2
1,86,8,180,0.4,6,-1.0,comp,right,0.564514243506,2
1,87,8,180,0.8,6,-2.0,comp,right,0.670331270871,2
1,88,8,180,0.0,6,1.5,comp,left,0.576257381621,2
1,89,8,180,0.2,6,0.5,comp,right,0.635069277156,2
1,90,8,180,0.8,6,1.0,comp,left,0.705370575004,2
1,91,8,180,0.8,6,-1.5,comp,right,0.67055664345,2
1,92,8,180,0.2,6,0.0,comp,left,0.752646690529,2
1,93,8,180,0.6,6,0.5,comp,left,0.940812866782,2
1,94,8,180,0.4,6,1.0,comp,left,0.68207134269,2
1,95,8,180,0.4,6,-2.0,comp,right,0.587992854002,2
1,96,8,180,0.8,6,-2.0,comp,right,0.57627041337,2
1,97,8,180,0.6,6,-1.5,comp,right,0.599765505194,2
1,98,8,180,0.6,6,-0.5,comp,left,0.811446704174,2
1,99,8,180,0.4,6,-0.5,comp,right,0.75265473955,2
1,100,8,180,0.0,6,-1.0,comp,right,0.670328587861,2
1,101,8,180,0.4,6,-1.5,comp,right,0.552732776727,2
1,102,8,180,0.2,6,0.5,comp,left,0.705639258984,2
1,103,8,180,0.6,6,2.0,comp,left,0.693835944858,2
1,104,8,180,0.2,6,1.5,comp,left,0.823191375435,2
1,105,8,180,0.8,6,1.0,comp,right,0.729145082831,2
1,106,8,180,0.0,6,-1.5,comp,right,1.03489787134,2
1,107,8,180,0.4,6,0.5,comp,left,0.670329354434,2
1,108,8,180,0.6,6,0.0,comp,left,1.03490668693,2
1,109,8,180,0.6,6,1.5,comp,left,0.623270179185,2
1,110,8,180,0.8,6,1.5,comp,left,0.623286277223,2
1,111,8,180,0.6,6,1.0,comp,right,0.623288193656,2
1,112,8,180,0.8,6,-1.0,comp,right,0.646781369047,2
1,113,8,180,0.2,6,-1.0,comp,right,0.799676735991,2
1,114,8,180,0.6,6,-2.0,comp,right,0.587983271835,2
1,115,8,180,0.0,6,-0.5,comp,right,0.776201191791,2
1,116,8,180,0.0,6,0.5,comp,right,0.623241049394,2
1,117,8,180,0.4,6,1.5,comp,left,0.740856408152,2
1,118,8,180,0.2,6,-0.5,comp,right,0.65859426534,2
1,119,8,180,0.0,6,1.0,comp,left,0.670307890381,2
1,120,8,180,0.2,6,2.0,comp,left,0.599792718549,2
1,121,8,180,0.0,6,1.5,comp,left,0.646810498838,2
1,122,8,180,0.0,6,0.0,comp,right,0.635037847645,2
1,123,8,180,0.4,6,2.0,comp,left,0.787911750533,2
1,124,8,180,0.8,6,0.5,comp,right,0.576265813932,2
1,125,8,180,0.2,6,1.0,comp,left,0.635043596947,2
1,126,8,180,0.4,6,0.0,comp,left,0.658590432475,2
1,127,8,180,0.2,6,-1.5,comp,right,0.764440805779,2
1,128,8,180,0.8,6,-0.5,comp,right,0.670334720449,2
1,129,8,180,0.4,6,-1.0,comp,right,0.552698280921,2
1,130,8,180,0.8,6,2.0,comp,left,0.670303674222,2
1,131,8,180,0.8,6,0.0,comp,right,0.493950394266,2
1,132,8,180,0.6,6,-1.0,comp,right,0.529187091059,2
1,133,8,180,0.0,6,-2.0,comp,right,0.529192073784,2
1,134,8,180,0.0,6,2.0,comp,left,0.658575867579,2
1,135,8,180,0.2,6,-2.0,comp,right,0.458716763773,2
1,136,8,180,0.8,6,-1.0,comp,left,0.740908918429,2
1,137,8,180,0.8,6,-2.0,comp,right,0.588004735888,2
1,138,8,180,0.0,6,-1.5,comp,right,0.635044746807,2
1,139,8,180,0.4,6,-0.5,comp,right,0.635049729535,2
1,140,8,180,0.6,6,2.0,comp,left,0.623016443384,2
1,141,8,180,0.0,6,-2.0,comp,right,0.776191609624,2
1,142,8,180,0.0,6,-0.5,comp,right,0.811390744315,2
1,143,8,180,0.2,6,2.0,comp,left,0.611524358064,2
1,144,8,180,0.6,6,1.5,comp,right,0.717369365353,2
1,145,8,180,0.0,6,2.0,comp,left,0.670338553315,2
1,146,8,180,0.8,6,0.0,comp,right,0.552751941061,2
1,147,8,180,0.4,6,2.0,comp,left,0.635026349046,2
1,148,8,180,0.0,6,0.5,comp,right,0.576224802251,2
1,149,8,180,0.8,6,2.0,comp,left,0.599765505194,2
1,150,8,180,0.0,6,1.0,comp,left,0.658548654221,2
1,151,8,180,0.2,6,0.5,comp,left,1.10547283589,2
1,152,8,180,0.4,6,0.0,comp,left,0.623279378065,2
1,153,8,180,0.8,6,0.5,comp,left,0.835093960817,2
1,154,8,180,0.6,6,0.5,comp,left,0.717373964791,2
1,155,8,180,0.4,6,-1.0,comp,right,0.552718211828,2
1,156,8,180,0.0,6,0.0,comp,right,0.623316556874,2
1,157,8,180,0.8,6,1.0,comp,right,0.740908918429,2
1,158,8,180,0.6,6,1.0,comp,right,0.846727862223,2
1,159,8,180,0.8,6,-0.5,comp,right,0.564515010079,2
1,160,8,180,0.2,6,1.5,comp,left,0.68212346968,2
1,161,8,180,0.4,6,1.5,comp,left,0.61155962044,2
1,162,8,180,0.4,6,1.0,comp,right,0.57624051701,2
1,163,8,180,0.2,6,-1.5,comp,right,0.635052795828,2
1,164,8,180,0.6,6,-0.5,comp,right,0.588027733091,2
1,165,8,180,0.8,6,-1.5,comp,right,0.59955316436,2
1,166,8,180,0.2,6,1.0,comp,left,0.870261282715,2
1,167,8,180,0.0,6,1.5,comp,left,0.646810882121,2
1,168,8,180,0.2,6,-2.0,comp,right,0.646844611354,2
1,169,8,180,0.4,6,-1.5,comp,right,0.635077709463,2
1,170,8,180,0.6,6,-1.0,comp,right,0.670347368909,2
1,171,8,180,0.6,6,-2.0,comp,right,0.658566668695,2
1,172,8,180,0.2,6,0.0,comp,right,0.62328551065,2
1,173,8,180,0.0,6,-1.0,comp,right,0.61151630904,2
1,174,8,180,0.6,6,-1.5,comp,right,0.611524741347,2
1,175,8,180,0.4,6,0.5,comp,right,0.635069660442,2
1,176,8,180,0.4,6,-2.0,comp,right,0.658584299887,2
1,177,8,180,0.8,6,1.5,comp,left,0.682072875836,2
1,178,8,180,0.2,6,-1.0,comp,right,0.658488094923,2
1,179,8,180,0.2,6,-0.5,comp,left,0.67032322185,2
1,180,8,180,0.6,6,0.0,comp,right,0.599779303513,2
1,181,8,180,0.4,6,0.0,comp,right,0.940794085731,2
1,182,8,180,0.8,6,1.0,comp,left,0.623256380859,2
1,183,8,180,0.0,6,1.0,comp,left,0.611524358061,2
1,184,8,180,0.4,6,2.0,comp,left,0.670303674226,2
1,185,8,180,0.4,6,-1.5,comp,right,0.693819846816,2
1,186,8,180,0.6,6,1.5,comp,left,0.611531257226,2
1,187,8,180,0.6,6,-0.5,comp,right,0.517466566856,2
1,188,8,180,0.4,6,-1.0,comp,right,0.576221735959,2
1,189,8,180,0.2,6,-1.0,comp,right,0.693841310873,2
1,190,8,180,0.8,6,-0.5,comp,right,0.56447016554,2
1,191,8,180,0.6,6,1.0,comp,left,0.740860241018,2
1,192,8,180,0.2,6,-2.0,comp,right,0.61152704107,2
1,193,8,180,0.4,6,0.5,comp,right,0.693840927586,2
1,194,8,180,0.2,6,1.5,comp,left,0.670325521565,2
1,195,8,180,0.2,6,-0.5,comp,right,0.976074860493,2
1,196,8,180,0.2,6,-1.5,comp,right,0.552705563368,2
1,197,8,180,0.8,6,1.5,comp,right,0.729094105704,2
1,198,8,180,0.8,6,-1.0,comp,right,0.588011251766,2
1,199,8,180,0.0,6,1.5,comp,right,0.69383939444,2
1,200,8,180,0.2,6,0.5,comp,right,0.564459050223,2
1,201,8,180,0.8,6,0.0,comp,right,0.49393582937,2
1,202,8,180,0.8,6,-2.0,comp,right,0.493941961962,2
1,203,8,180,0.4,6,1.0,comp,right,0.587993237288,2
1,204,8,180,0.2,6,1.0,comp,left,0.8114286897,2
1,205,8,180,0.8,6,0.5,comp,right,0.717390829403,2
1,206,8,180,0.6,6,-1.5,comp,right,0.552709012951,2
1,207,8,180,0.4,6,1.5,comp,left,0.576244349875,2
1,208,8,180,0.8,6,-1.5,comp,right,0.599942200366,2
1,209,8,180,0.0,6,-0.5,comp,right,0.67031095667,2
1,210,8,180,0.4,6,-2.0,comp,right,0.517448935672,2
1,211,8,180,0.0,6,-1.0,comp,right,0.505650220985,2
1,212,8,180,0.8,6,2.0,comp,right,0.505686633223,2
1,213,8,180,0.0,6,-2.0,comp,right,0.552689465327,2
1,214,8,180,0.0,6,0.5,comp,left,0.576246266308,2
1,215,8,180,0.4,6,-0.5,comp,right,0.752661638711,2
1,216,8,180,0.6,6,0.0,comp,left,0.729137800387,2
1,217,8,180,0.6,6,-2.0,comp,right,0.6233272889,2
1,218,8,180,0.2,6,2.0,comp,left,0.693858558774,2
1,219,8,180,0.0,6,-1.5,comp,right,0.529188240918,2
1,220,8,180,0.6,6,2.0,comp,left,0.6350248159,2
1,221,8,180,0.0,6,2.0,comp,left,0.882014386283,2
1,222,8,180,0.6,6,0.5,comp,right,0.799707398932,2
1,223,8,180,0.6,6,-1.0,comp,right,0.529172909446,2
1,224,8,180,0.2,6,0.0,comp,right,0.599767421627,2
1,225,8,180,0.0,6,0.0,comp,right,0.846757758591,2
1,226,8,180,0.4,6,1.0,comp,right,0.693838244581,2
1,227,8,180,0.2,6,-0.5,comp,right,0.646795167369,2
1,228,8,180,0.6,6,0.0,comp,right,0.587978672396,2
1,229,8,180,0.2,6,1.0,comp,left,0.59975707288,2
1,230,8,180,0.6,6,-0.5,comp,right,0.752689235349,2
1,231,8,180,0.0,6,1.0,comp,left,0.658588516038,2
1,232,8,180,0.2,6,-2.0,comp,right,0.588030416096,2
1,233,8,180,0.6,6,1.0,comp,left,0.541000370635,2
1,234,8,180,0.0,6,2.0,comp,left,0.729114419897,2
1,235,8,180,0.0,6,0.0,comp,left,0.846713297324,2
1,236,8,180,0.0,6,0.5,comp,left,1.56410297687,2
1,237,8,180,0.8,6,0.0,comp,left,0.9172675644,2
1,238,8,180,0.0,6,-1.0,comp,right,0.787912133819,2
1,239,8,180,0.8,6,0.5,comp,right,0.999581450917,2
1,240,8,180,0.8,6,2.0,comp,left,0.682109671361,2
1,241,8,180,0.2,6,0.5,comp,right,0.705630443386,2
1,242,8,180,0.6,6,0.5,comp,left,0.78791060068,2
1,243,8,180,0.2,6,0.0,comp,left,0.693826362687,2
1,244,8,180,0.4,6,0.5,comp,right,0.752652056544,2
1,245,8,180,0.4,6,1.5,comp,left,0.752657039273,2
1,246,8,180,0.4,6,-2.0,comp,right,0.682085524299,2
1,247,8,180,0.2,6,-1.0,comp,right,1.27011134096,2
1,248,8,180,0.4,6,-1.0,comp,right,0.599729476242,2
1,249,8,180,0.8,6,1.5,comp,left,0.646798616952,2
1,250,8,180,0.8,6,-1.5,comp,right,0.658586599609,2
1,251,8,180,0.8,6,1.0,comp,right,0.929083526986,2
1,252,8,180,0.8,6,-0.5,comp,right,0.729102921301,2
1,253,8,180,0.8,6,-2.0,comp,right,0.635057395273,2
1,254,8,180,0.6,6,-2.0,comp,right,0.670320922123,2
1,255,8,180,0.0,6,-0.5,comp,right,0.882020135585,2
1,256,8,180,0.6,6,1.5,comp,left,0.729151598709,2
1,257,8,180,0.2,6,-1.5,comp,right,0.705636959268,2
1,258,8,180,0.6,6,2.0,comp,left,0.623292409815,2
1,259,8,180,0.2,6,1.5,comp,left,0.658557853109,2
1,260,8,180,0.0,6,-2.0,comp,right,0.682103155479,2
1,261,8,180,0.6,6,-1.0,comp,right,0.670349285341,2
1,262,8,180,0.6,6,-1.5,comp,right,0.658575484289,2
1,263,8,180,0.4,6,0.0,comp,left,0.752665854867,2
1,264,8,180,0.4,6,2.0,comp,left,0.74090930172,2
1,265,8,180,0.2,6,2.0,comp,left,0.740903935701,2
1,266,8,180,0.4,6,-0.5,comp,right,0.987875874896,2
1,267,8,180,0.0,6,1.5,comp,left,0.729139716816,2
1,268,8,180,0.8,6,-1.0,comp,right,0.905571187264,2
1,269,8,180,0.0,6,-1.5,comp,right,0.717374731365,2
1,270,8,180,0.4,6,-1.5,comp,right,0.623311190859,2
2,1,8,0,0.4,6,-0.5,comp,left,1.11722287317,2
2,2,8,0,0.0,6,0.0,comp,right,0.682111971073,2
2,3,8,0,0.2,6,2.0,comp,right,0.635076176317,2
2,4,8,0,0.4,6,0.0,comp,left,0.670305590655,2
2,5,8,0,0.6,6,1.5,comp,right,0.670328204578,2
2,6,8,0,0.8,6,-2.0,comp,left,0.623282827641,2
2,7,8,0,0.2,6,0.5,comp,right,0.705606296331,2
2,8,8,0,0.0,6,-0.5,comp,left,0.72910790403,2
2,9,8,0,0.4,6,0.5,comp,right,0.552749641334,2
2,10,8,0,0.2,6,0.0,comp,right,0.846713680614,2
2,11,8,0,0.6,6,1.0,comp,right,0.646796317233,2
2,12,8,0,0.4,6,1.5,comp,right,0.623283594214,2
2,13,8,0,0.0,6,1.5,comp,right,0.493903633294,2
2,14,8,0,0.4,6,-1.0,comp,left,0.705600930312,2
2,15,8,0,0.6,6,-2.0,comp,left,0.670372665831,2
2,16,8,0,0.0,6,-2.0,comp,left,0.599756306314,2
2,17,8,0,0.8,6,1.0,comp,right,0.529284445882,2
2,18,8,0,0.0,6,-1.0,comp,left,0.693856642334,2
2,19,8,0,0.0,6,2.0,comp,right,0.529172142873,2
2,20,8,0,0.4,6,1.0,comp,right,0.529232318891,2
2,21,8,0,0.8,6,2.0,comp,right,0.50565443714,2
2,22,8,0,0.4,6,-2.0,comp,left,0.670309423527,2
2,23,8,0,0.2,6,-0.5,comp,right,0.588005119178,2
2,24,8,0,0.0,6,1.0,comp,right,0.588002436176,2
2,25,8,0,0.8,6,0.5,comp,right,0.599752856731,2
2,26,8,0,0.8,6,0.0,comp,right,0.658558619674,2
2,27,8,0,0.8,6,-1.0,comp,right,0.834949078446,2
2,28,8,0,0.2,6,-1.5,comp,left,0.705629676821,2
2,29,8,0,0.8,6,-1.5,comp,right,0.564491629593,2
2,30,8,0,0.0,6,0.5,comp,right,0.576215986664,2
2,31,8,0,0.0,6,-1.5,comp,left,0.658571651431,2
2,32,8,0,0.6,6,0.5,comp,right,0.552727410708,2
2,33,8,0,0.6,6,-0.5,comp,right,0.740882854931,2
2,34,8,0,0.4,6,2.0,comp,right,0.564463266383,2
2,35,8,0,0.2,6,-2.0,comp,left,0.599738675126,2
2,36,8,0,0.8,6,-0.5,comp,left,0.693848976603,2
2,37,8,0,0.6,6,2.0,comp,right,0.588004352605,2
2,38,8,0,0.6,6,0.0,comp,right,0.964353953008,2
2,39,8,0,0.2,6,1.5,comp,right,0.540987722183,2
2,40,8,0,0.2,6,1.0,comp,right,0.9408527286,2
2,41,8,0,0.2,6,-1.0,comp,left,0.693875423385,2
2,42,8,0,0.6,6,-1.5,comp,left,0.846758141874,2
2,43,8,0,0.6,6,-1.0,comp,left,0.693847060174,2
2,44,8,0,0.8,6,1.5,comp,right,0.611542755818,2
2,45,8,0,0.4,6,-1.5,comp,left,0.61150519373,2
2,46,8,0,0.0,6,0.5,comp,right,0.635024432609,2
2,47,8,0,0.6,6,2.0,comp,right,0.55272281127,2
2,48,8,0,0.6,6,-1.0,comp,left,0.670338553318,2
2,49,8,0,0.4,6,0.5,comp,right,0.740902402555,2
2,50,8,0,0.2,6,1.0,comp,right,0.576186473583,2
2,51,8,0,0.6,6,1.5,comp,right,0.658764061351,2
2,52,8,0,0.8,6,-0.5,comp,right,0.470417740347,2
2,53,8,0,0.4,6,-1.0,comp,right,0.870273931178,2
2,54,8,0,0.8,6,2.0,comp,right,0.517490330632,2
2,55,8,0,0.8,6,1.5,comp,right,0.611518608755,2
2,56,8,0,0.2,6,-1.0,comp,left,0.552694448052,2
2,57,8,0,0.2,6,2.0,comp,right,0.623338020931,2
2,58,8,0,0.8,6,-2.0,comp,left,0.658575484289,2
2,59,8,0,0.8,6,0.0,comp,right,0.823240819424,2
2,60,8,0,0.2,6,-2.0,comp,left,0.705599397166,2
2,61,8,0,0.2,6,-0.5,comp,right,0.599767804917,2
2,62,8,0,0.0,6,-2.0,comp,left,0.540935978475,2
2,63,8,0,0.0,6,2.0,comp,right,0.505658270005,2
2,64,8,0,0.2,6,0.5,comp,left,0.693817930376,2
2,65,8,0,0.2,6,1.5,comp,right,0.517474232591,2
2,66,8,0,0.0,6,-1.5,comp,left,0.552712079239,2
2,67,8,0,0.4,6,2.0,comp,right,0.423388461459,2
2,68,8,0,0.8,6,1.0,comp,left,0.517424022037,2
2,69,8,0,0.6,6,-0.5,comp,right,0.65857356786,2
2,70,8,0,0.0,6,1.0,comp,right,0.599775470648,2
2,71,8,0,0.4,6,-2.0,comp,left,0.552746191759,2
2,72,8,0,0.4,6,-0.5,comp,left,0.729133200941,2
2,73,8,0,0.6,6,-2.0,comp,left,0.576252015606,2
2,74,8,0,0.8,6,-1.0,comp,left,0.505684716787,2
2,75,8,0,0.2,6,-1.5,comp,left,0.493909765879,2
2,76,8,0,0.4,6,1.5,comp,right,0.623302758555,2
2,77,8,0,0.8,6,-1.5,comp,left,0.764408226409,2
2,78,8,0,0.0,6,0.0,comp,right,0.540978906582,2
2,79,8,0,0.4,6,0.0,comp,left,0.96433670511,2
2,80,8,0,0.6,6,-1.5,comp,left,0.599748257293,2
2,81,8,0,0.0,6,1.5,comp,right,0.599793101836,2
2,82,8,0,0.6,6,0.0,comp,left,0.635027882192,2
2,83,8,0,0.8,6,0.5,comp,left,0.893777455305,2
2,84,8,0,0.2,6,0.0,comp,left,0.693805281924,2
2,85,8,0,0.4,6,1.0,comp,right,0.764412059274,2
2,86,8,0,0.0,6,-1.0,comp,left,0.693852809469,2
2,87,8,0,0.0,6,-0.5,comp,left,0.76441397571,2
2,88,8,0,0.6,6,0.5,comp,right,0.705584832271,2
2,89,8,0,0.6,6,1.0,comp,right,0.599827214355,2
2,90,8,0,0.4,6,-1.5,comp,left,0.646810882121,2
2,91,8,0,0.4,6,1.5,comp,right,0.693855875768,2
2,92,8,0,0.6,6,0.0,comp,left,0.6703101901,2
2,93,8,0,0.8,6,1.5,comp,right,0.493943878391,2
2,94,8,0,0.2,6,-0.5,comp,left,0.599746340857,2
2,95,8,0,0.4,6,0.5,comp,right,0.588211327427,2
2,96,8,0,0.8,6,-1.5,comp,left,0.49392509734,2
2,97,8,0,0.8,6,0.0,comp,right,0.42338386202,2
2,98,8,0,0.2,6,0.5,comp,right,0.787936664172,2
2,99,8,0,0.0,6,0.0,comp,left,0.587973306378,2
2,100,8,0,0.6,6,-2.0,comp,left,0.493932379788,2
2,101,8,0,0.2,6,1.5,comp,left,0.517471932879,2
2,102,8,0,0.2,6,-1.5,comp,left,0.529231935601,2
2,103,8,0,0.0,6,-1.0,comp,left,0.564476681408,2
2,104,8,0,0.8,6,0.5,comp,right,0.740929615917,2
2,105,8,0,0.2,6,-2.0,comp,left,0.799688617881,2
2,106,8,0,0.4,6,-0.5,comp,left,0.846717130196,2
2,107,8,0,0.0,6,1.5,comp,right,0.576258531481,2
2,108,8,0,0.2,6,-1.0,comp,left,0.587979055679,2
2,109,8,0,0.0,6,-0.5,comp,left,0.5997681882,2
2,110,8,0,0.4,6,-2.0,comp,left,0.623260597014,2
2,111,8,0,0.0,6,-1.5,comp,left,0.505737993633,2
2,112,8,0,0.4,6,1.0,comp,right,0.576263514209,2
2,113,8,0,0.0,6,1.0,comp,right,0.717354033884,2
2,114,8,0,0.4,6,-1.5,comp,left,0.646783285483,2
2,115,8,0,0.8,6,-0.5,comp,right,0.752627526199,2
2,116,8,0,0.8,6,-2.0,comp,left,0.588036931971,2
2,117,8,0,0.8,6,1.0,comp,right,0.646816631423,2
2,118,8,0,0.8,6,2.0,comp,right,0.623264813163,2
2,119,8,0,0.6,6,-1.0,comp,left,0.62326442988,2
2,120,8,0,0.6,6,2.0,comp,right,0.552753857497,2
2,121,8,0,0.4,6,0.0,comp,left,0.540978523299,2
2,122,8,0,0.6,6,1.5,comp,right,0.717371665065,2
2,123,8,0,0.4,6,2.0,comp,right,0.599811116314,2
2,124,8,0,0.6,6,0.5,comp,left,0.717359399896,2
2,125,8,0,0.8,6,-1.0,comp,right,0.658564752259,2
2,126,8,0,0.0,6,2.0,comp,right,0.58812585449,2
2,127,8,0,0.6,6,-1.5,comp,left,0.588024666795,2
2,128,8,0,0.6,6,1.0,comp,right,0.599768571483,2
2,129,8,0,0.2,6,2.0,comp,right,0.635051645972,2
2,130,8,0,0.4,6,-1.0,comp,left,0.658590432475,2
2,131,8,0,0.2,6,1.0,comp,right,0.787962727671,2
2,132,8,0,0.0,6,-2.0,comp,left,0.540940961197,2
2,133,8,0,0.2,6,0.0,comp,left,0.811484266269,2
2,134,8,0,0.0,6,0.5,comp,right,0.752671220878,2
2,135,8,0,0.6,6,-0.5,comp,left,0.599827597638,2
2,136,8,0,0.6,6,-2.0,comp,left,0.693842460729,2
2,137,8,0,0.4,6,1.5,comp,left,0.693853576042,2
2,138,8,0,0.6,6,-0.5,comp,left,0.646771020307,2
2,139,8,0,0.4,6,-1.0,comp,left,0.658572801287,2
2,140,8,0,0.4,6,1.0,comp,right,0.846733994811,2
2,141,8,0,0.8,6,-1.5,comp,left,0.635039764078,2
2,142,8,0,0.2,6,0.5,comp,right,0.635051645964,2
2,143,8,0,0.8,6,-0.5,comp,left,0.635048196382,2
2,144,8,0,0.8,6,0.5,comp,left,0.623270562472,2
2,145,8,0,0.8,6,2.0,comp,right,0.611512092888,2
2,146,8,0,0.2,6,-1.0,comp,left,0.71738967955,2
2,147,8,0,0.0,6,-1.5,comp,left,0.752627526192,2
2,148,8,0,0.4,6,-1.5,comp,left,0.62323300037,2
2,149,8,0,0.0,6,0.0,comp,left,0.705633509686,2
2,150,8,0,0.2,6,1.0,comp,left,0.764409759548,2
2,151,8,0,0.2,6,-2.0,comp,left,0.576224035678,2
2,152,8,0,0.6,6,0.5,comp,right,0.776168612421,2
2,153,8,0,0.0,6,1.5,comp,right,0.646830813035,2
2,154,8,0,0.4,6,2.0,comp,right,0.646804749536,2
2,155,8,0,0.2,6,1.5,comp,right,0.635033248211,2
2,156,8,0,0.2,6,-0.5,comp,left,0.787935897592,2
2,157,8,0,0.6,6,1.5,comp,right,0.729094105707,2
2,158,8,0,0.8,6,0.0,comp,left,0.987836779655,2
2,159,8,0,0.4,6,0.5,comp,left,0.658543288206,2
2,160,8,0,0.8,6,1.5,comp,right,0.670359250798,2
2,161,8,0,0.0,6,-1.0,comp,left,0.635074259888,2
2,162,8,0,0.0,6,-2.0,comp,left,0.670302141072,2
2,163,8,0,0.6,6,1.0,comp,right,0.964332872238,2
2,164,8,0,0.8,6,-2.0,comp,left,0.576187623439,2
2,165,8,0,0.0,6,1.0,comp,right,0.658535239192,2
2,166,8,0,0.2,6,0.0,comp,left,0.729114036607,2
2,167,8,0,0.4,6,0.0,comp,right,0.835019986487,2
2,168,8,0,0.6,6,2.0,comp,right,0.670346602339,2
2,169,8,0,0.6,6,0.0,comp,left,0.658590049192,2
2,170,8,0,0.2,6,2.0,comp,right,0.682095106466,2
2,171,8,0,0.4,6,-0.5,comp,left,0.623287427086,2
2,172,8,0,0.0,6,2.0,comp,right,0.646806282683,2
2,173,8,0,0.8,6,-1.0,comp,left,0.682115803946,2
2,174,8,0,0.6,6,-1.0,comp,left,0.717344835,2
2,175,8,0,0.8,6,1.0,comp,left,0.917287495307,2
2,176,8,0,0.0,6,0.5,comp,left,0.729112120178,2
2,177,8,0,0.2,6,-1.5,comp,left,0.635074259881,2
2,178,8,0,0.0,6,-0.5,comp,left,0.635050112818,2
2,179,8,0,0.6,6,-1.5,comp,left,0.635041680514,2
2,180,8,0,0.4,6,-2.0,comp,left,0.54096280854,2
2,181,8,0,0.2,6,2.0,comp,right,0.7526532064,2
2,182,8,0,0.0,6,2.0,comp,right,0.64681318184,2
2,183,8,0,0.8,6,1.5,comp,right,0.529207021966,2
2,184,8,0,0.0,6,0.5,comp,left,0.752617560735,2
2,185,8,0,0.8,6,2.0,comp,right,0.635045130097,2
2,186,8,0,0.6,6,-1.5,comp,left,0.7408721229,2
2,187,8,0,0.4,6,-0.5,comp,right,0.635029032055,2
2,188,8,0,0.2,6,-0.5,comp,left,0.976107823153,2
2,189,8,0,0.4,6,-2.0,comp,left,0.682213158769,2
2,190,8,0,0.8,6,-0.5,comp,left,1.01137671602,2
2,191,8,0,0.0,6,-2.0,comp,left,0.62329585939,2
2,192,8,0,0.8,6,0.0,comp,right,0.705595564301,2
2,193,8,0,0.4,6,1.5,comp,right,0.658586216319,2
2,194,8,0,0.0,6,-1.5,comp,left,0.646794017506,2
2,195,8,0,0.2,6,-2.0,comp,left,0.799696666894,2
2,196,8,0,0.6,6,0.0,comp,left,0.834959427186,2
2,197,8,0,0.2,6,1.0,comp,right,0.787973842984,2
2,198,8,0,0.8,6,-1.0,comp,left,0.646802833107,2
2,199,8,0,0.0,6,0.0,comp,left,0.729131284512,2
2,200,8,0,0.6,6,-2.0,comp,left,0.564481280853,2
2,201,8,0,0.6,6,0.5,comp,right,0.693848593321,2
2,202,8,0,0.0,6,-0.5,comp,right,0.764390595214,2
2,203,8,0,0.6,6,-0.5,comp,left,0.646814331703,2
2,204,8,0,0.6,6,1.5,comp,right,0.752652056544,2
2,205,8,0,0.2,6,0.5,comp,left,0.705645008282,2
2,206,8,0,0.4,6,0.5,comp,left,0.764445788504,2
2,207,8,0,0.2,6,0.0,comp,left,0.564421871408,2
2,208,8,0,0.6,6,1.0,comp,left,0.623247565265,2
2,209,8,0,0.2,6,-1.5,comp,left,0.599766655047,2
2,210,8,0,0.4,6,-1.5,comp,left,0.670327437998,2
2,211,8,0,0.4,6,-1.0,comp,left,0.588003202742,2
2,212,8,0,0.0,6,1.5,comp,left,0.529184791332,2
2,213,8,0,0.6,6,-1.0,comp,left,0.599767421627,2
2,214,8,0,0.8,6,-2.0,comp,left,0.588012784909,2
2,215,8,0,0.4,6,1.0,comp,right,0.564488180018,2
2,216,8,0,0.0,6,-1.0,comp,left,0.587994003865,2
2,217,8,0,0.0,6,1.0,comp,right,0.84675699201,2
2,218,8,0,0.2,6,-1.0,comp,left,0.658611513245,2
2,219,8,0,0.4,6,0.0,comp,right,0.811407225643,2
2,220,8,0,0.2,6,1.5,comp,right,0.729104454447,2
2,221,8,0,0.6,6,2.0,comp,right,0.635072343444,2
2,222,8,0,0.4,6,2.0,comp,right,0.623295092817,2
2,223,8,0,0.8,6,1.0,comp,right,0.599754006587,2
2,224,8,0,0.8,6,-1.5,comp,left,0.729109820459,2
2,225,8,0,0.8,6,0.5,comp,left,0.94075345734,2
2,226,8,0,0.8,6,-1.0,comp,left,0.646798616952,2
2,227,8,0,0.8,6,-1.5,comp,left,0.682118486948,2
2,228,8,0,0.8,6,-0.5,comp,left,0.799631508162,2
2,229,8,0,0.6,6,0.0,comp,left,0.870269331732,2
2,230,8,0,0.6,6,-0.5,comp,left,0.670332037444,2
2,231,8,0,0.0,6,1.5,comp,right,0.635044746807,2
2,232,8,0,0.8,6,0.5,comp,right,0.764393278223,2
2,233,8,0,0.6,6,2.0,comp,right,0.811470084664,2
2,234,8,0,0.0,6,-2.0,comp,left,0.811477750402,2
2,235,8,0,0.8,6,-2.0,comp,left,0.682064060238,2
2,236,8,0,0.2,6,-1.0,comp,left,0.764417808576,2
2,237,8,0,0.4,6,-2.0,comp,left,0.634944708974,2
2,238,8,0,0.4,6,-1.0,comp,left,0.682115803946,2
2,239,8,0,0.2,6,1.0,comp,right,0.635025582473,2
2,240,8,0,0.4,6,1.0,comp,right,0.752627526199,2
2,241,8,0,0.2,6,0.0,comp,left,1.12897942632,2
2,242,8,0,0.2,6,2.0,comp,right,0.564468632387,2
2,243,8,0,0.8,6,1.5,comp,right,0.729161180876,2
2,244,8,0,0.6,6,-1.0,comp,left,0.717395812135,2
2,245,8,0,0.4,6,0.0,comp,left,0.91728826188,2
2,246,8,0,0.8,6,1.0,comp,right,0.564475148269,2
2,247,8,0,0.4,6,1.5,comp,right,0.611522441628,2
2,248,8,0,0.6,6,1.5,comp,right,0.59974749072,2
2,249,8,0,0.2,6,-2.0,comp,left,0.705610129189,2
2,250,8,0,0.8,6,0.0,comp,left,0.717366682344,2
2,251,8,0,0.6,6,0.5,comp,right,0.670358484225,2
2,252,8,0,0.0,6,2.0,comp,right,0.834995072852,2
2,253,8,0,0.6,6,-2.0,comp,left,0.693821379966,2
2,254,8,0,0.8,6,2.0,comp,right,0.729122852201,2
2,255,8,0,0.0,6,1.0,comp,right,0.740901252691,2
2,256,8,0,0.4,6,-1.5,comp,left,0.670311723239,2
2,257,8,0,0.0,6,-1.0,comp,left,0.705579849549,2
2,258,8,0,0.2,6,1.5,comp,right,0.717414209896,2
2,259,8,0,0.0,6,0.0,comp,left,0.764413975703,2
2,260,8,0,0.0,6,-0.5,comp,left,0.834969392643,2
2,261,8,0,0.6,6,-1.5,comp,left,0.611530873939,2
2,262,8,0,0.2,6,0.5,comp,left,1.04664330917,2
2,263,8,0,0.0,6,0.5,comp,left,0.717369748636,2
2,264,8,0,0.4,6,0.5,comp,left,0.929057463494,2
2,265,8,0,0.0,6,-1.5,comp,left,0.693853959332,2
2,266,8,0,0.6,6,1.0,comp,right,0.764460736682,2
2,267,8,0,0.2,6,-1.5,comp,left,0.717373964791,2
2,268,8,0,0.4,6,-0.5,comp,left,0.63505624541,2
2,269,8,0,0.4,6,2.0,comp,right,0.787904084806,2
2,270,8,0,0.2,6,-0.5,comp,left,0.987863609727,2
3,1,8,180,0.6,6,2.0,comp,left,0.940827048391,2
3,2,8,0,0.6,6,-1.0,comp,right,0.882031250898,2
3,3,8,0,0.8,6,-0.5,comp,right,0.752674287171,2
3,4,8,0,0.6,6,-1.5,comp,left,0.717342151991,2
3,5,8,0,0.2,6,0.0,comp,right,0.846761974739,2
3,6,8,0,0.8,6,0.0,comp,right,0.787924015705,2
3,7,8,0,0.4,6,2.0,comp,right,0.564483963863,2
3,8,8,180,0.2,6,-2.0,comp,right,0.893814634117,2
3,9,8,0,0.0,6,-0.5,comp,right,0.834939879569,2
3,10,8,180,0.8,6,-1.5,comp,right,0.917312792233,2
3,11,8,0,0.8,6,-1.0,comp,right,0.846774239915,2
3,12,8,180,0.4,6,-2.0,comp,left,0.870257833136,2
3,13,8,180,0.8,6,1.0,comp,left,0.799685168298,2
3,14,8,180,0.2,6,2.0,comp,left,0.764394044803,2
3,15,8,0,0.8,6,1.5,comp,right,0.846737827676,2
3,16,8,0,0.2,6,-1.0,comp,left,0.96434628727,2
3,17,8,0,0.0,6,-1.5,comp,left,0.693852042903,2
3,18,8,180,0.6,6,-1.5,comp,right,1.27013548802,2
3,19,8,0,0.2,6,1.0,comp,right,0.705612428916,2
3,20,8,0,0.0,6,1.0,comp,right,0.693852809476,2
3,21,8,180,0.6,6,1.5,comp,left,0.670351968351,2
3,22,8,180,0.8,6,-2.0,comp,right,0.729143166398,2
3,23,8,0,0.8,6,-1.5,comp,left,0.729103687867,2
3,24,8,180,0.8,6,0.5,comp,left,0.776172062004,2
3,25,8,180,0.2,6,1.0,comp,left,0.623269412608,2
3,26,8,180,0.0,6,-0.5,comp,left,0.882025884886,2
3,27,8,180,0.8,6,1.5,comp,left,0.740903169128,2
3,28,8,180,0.6,6,-1.0,comp,right,0.964338238256,2
3,29,8,180,0.2,6,0.0,comp,left,0.72913856696,2
3,30,8,0,0.2,6,2.0,comp,right,0.776155963962,2
3,31,8,0,0.2,6,-2.0,comp,left,0.67035426807,2
3,32,8,0,0.6,6,-2.0,comp,left,0.764409376265,2
3,33,8,0,0.4,6,-1.0,comp,left,0.882018219148,2
3,34,8,0,0.4,6,0.5,comp,right,1.66996523207,2
3,35,8,180,0.4,6,-0.5,comp,right,0.76441397571,2
3,36,8,180,0.0,6,-2.0,comp,right,0.588001669596,2
3,37,8,0,0.4,6,-2.0,comp,left,0.682085141008,2
3,38,8,0,0.2,6,-1.5,comp,right,1.04665749078,2
3,39,8,180,0.8,6,0.0,comp,left,0.811480433404,2
3,40,8,180,0.6,6,0.0,comp,right,1.02315166693,2
3,41,8,180,0.4,6,-1.5,comp,left,0.705617411637,2
3,42,8,180,0.0,6,-1.5,comp,right,0.893806201806,2
3,43,8,180,0.0,6,0.0,comp,right,0.882041982928,2
3,44,8,180,0.4,6,1.5,comp,left,0.717348284583,2
3,45,8,0,0.8,6,0.5,comp,right,0.787937814035,2
3,46,8,0,0.6,6,2.0,comp,right,0.682088590591,2
3,47,8,0,0.0,6,1.5,comp,right,0.646836562337,2
3,48,8,0,0.6,6,0.5,comp,right,0.752683486055,2
3,49,8,0,0.4,6,-1.5,comp,left,0.776208090952,2
3,50,8,180,0.8,6,-0.5,comp,left,1.02312713658,2
3,51,8,180,0.4,6,0.0,comp,right,0.752649756825,2
3,52,8,180,0.4,6,1.0,comp,left,0.717352117448,2
3,53,8,180,0.2,6,0.5,comp,right,0.823210539769,2
3,54,8,180,0.6,6,-0.5,comp,right,0.846742427122,2
3,55,8,0,0.8,6,2.0,comp,right,0.682058310937,2
3,56,8,180,0.6,6,-2.0,comp,right,0.76438216291,2
3,57,8,180,0.0,6,2.0,comp,left,0.646804366253,2
3,58,8,0,0.0,6,0.0,comp,left,0.693839011154,2
3,59,8,0,0.2,6,-0.5,comp,left,0.787933214589,2
3,60,8,0,0.4,6,1.5,comp,right,0.611574568618,2
3,61,8,0,0.6,6,-0.5,comp,left,0.846744343551,2
3,62,8,180,0.0,6,-1.0,comp,right,0.693850126467,2
3,63,8,180,0.6,6,1.0,comp,left,0.741094045909,2
3,64,8,0,0.0,6,-2.0,comp,left,0.611530873939,2
3,65,8,180,0.2,6,-1.5,comp,right,0.740899719553,2
3,66,8,0,0.8,6,-2.0,comp,left,0.929034466295,2
3,67,8,0,0.4,6,-0.5,comp,left,1.03488828917,2
3,68,8,0,0.2,6,0.5,comp,left,0.72914010010600006,2
3,69,8,0,0.0,6,0.5,comp,right,0.564519226238,2
3,70,8,180,0.6,6,0.5,comp,left,0.682079008424,2
3,71,8,180,0.8,6,2.0,comp,left,0.61150749345,2
3,72,8,0,0.2,6,1.5,comp,right,0.599767038344,2
3,73,8,0,0.4,6,1.0,comp,right,0.529244200778,2
3,74,8,180,0.2,6,1.5,comp,left,0.623323839318,2
3,75,8,0,0.6,6,0.0,comp,right,1.04665327464,2
3,76,8,180,0.2,6,-0.5,comp,right,0.658543671496,2
3,77,8,0,0.6,6,1.5,comp,right,0.717344068427,2
3,78,8,0,0.0,6,-1.0,comp,right,0.940823215526,2
3,79,8,180,0.4,6,-1.0,comp,right,0.787935131026,2
3,80,8,180,0.0,6,1.0,comp,left,0.59971606121,2
3,81,8,180,0.4,6,2.0,comp,left,0.588039998263,2
3,82,8,0,0.4,6,0.0,comp,left,1.48179100679,2
3,83,8,180,0.2,6,-1.0,comp,right,1.44650409945,2
3,84,8,180,0.0,6,0.5,comp,left,0.682076708697,2
3,85,8,180,0.4,6,0.5,comp,left,0.740890520668,2
3,86,8,0,0.0,6,2.0,comp,right,0.623311574142,2
3,87,8,180,0.0,6,1.5,comp,left,0.576257381625,2
3,88,8,0,0.6,6,1.0,comp,right,0.717353650594,2
3,89,8,0,0.8,6,1.0,comp,right,0.940814399932,2
3,90,8,180,0.8,6,-1.0,comp,right,0.682098556041,2
3,91,8,180,0.0,6,-0.5,comp,left,0.658569351705,2
3,92,8,180,0.2,6,2.0,comp,left,0.599787735824,2
3,93,8,0,0.6,6,0.0,comp,left,1.02340885231,2
3,94,8,0,0.2,6,-2.0,comp,left,0.599797317984,2
3,95,8,0,0.0,6,0.0,comp,left,0.670356567789,2
3,96,8,180,0.6,6,-0.5,comp,left,0.917020344474,2
3,97,8,0,0.4,6,-1.0,comp,left,0.6703331873,2
3,98,8,180,0.6,6,0.0,comp,left,0.693852809469,2
3,99,8,0,0.6,6,0.5,comp,right,0.623321156309,2
3,100,8,180,0.0,6,0.5,comp,left,0.635048196389,2
3,101,8,180,0.4,6,2.0,comp,left,0.740862540741,2
3,102,8,180,0.2,6,-0.5,comp,right,0.658539455348,2
3,103,8,180,0.8,6,-0.5,comp,right,0.987860160145,2
3,104,8,180,0.0,6,-1.0,comp,right,0.976108589719,2
3,105,8,0,0.0,6,0.5,comp,right,0.740912751295,2
3,106,8,0,0.2,6,-0.5,comp,left,0.740872506198,2
3,107,8,0,0.0,6,-2.0,comp,left,0.752668537869,2
3,108,8,0,0.6,6,2.0,comp,right,0.576274246232,2
3,109,8,0,0.0,6,2.0,comp,right,0.599776620504,2
3,110,8,0,0.0,6,-1.0,comp,left,0.682079774997,2
3,111,8,0,0.0,6,-0.5,comp,left,0.823177577113,2
3,112,8,180,0.2,6,1.0,comp,left,0.693834028425,2
3,113,8,0,0.0,6,1.5,comp,right,0.69382712926,2
3,114,8,0,0.2,6,0.0,comp,right,0.78792056613,2
3,115,8,0,0.6,6,-0.5,comp,left,0.670326671432,2
3,116,8,180,0.0,6,0.0,comp,left,0.670324754996,2
3,117,8,180,0.0,6,1.0,comp,left,0.540970857561,2
3,118,8,180,0.6,6,-1.0,comp,right,0.929035999434,2
3,119,8,0,0.8,6,2.0,comp,right,0.658587749465,2
3,120,8,180,0.2,6,0.0,comp,right,0.611529724076,2
3,121,8,0,0.6,6,-1.0,comp,left,0.599776237221,2
3,122,8,180,0.2,6,-2.0,comp,right,0.576266197211,2
3,123,8,180,0.6,6,0.5,comp,left,0.799666770537,2
3,124,8,0,0.4,6,1.5,comp,right,0.693841694156,2
3,125,8,180,0.4,6,0.5,comp,left,0.752617944025,2
3,126,8,180,0.8,6,-1.0,comp,right,0.729100238292,2
3,127,8,0,0.8,6,-2.0,comp,left,0.587980588825,2
3,128,8,0,0.0,6,1.0,comp,right,0.599769338063,2
3,129,8,0,0.2,6,0.5,comp,right,0.776172445287,2
3,130,8,180,0.4,6,-1.5,comp,right,0.682098172758,2
3,131,8,0,0.8,6,1.0,comp,right,1.08194056526,2
3,132,8,0,0.2,6,-1.5,comp,left,0.599817632181,2
3,133,8,180,0.6,6,1.5,comp,left,0.646829279882,2
3,134,8,0,0.4,6,0.0,comp,left,0.646786351776,2
3,135,8,180,0.2,6,1.5,comp,left,0.870247867679,2
3,136,8,180,0.8,6,1.5,comp,right,0.587999369876,2
3,137,8,180,0.4,6,-1.0,comp,right,0.882027801315,2
3,138,8,0,0.8,6,1.5,comp,right,0.646822380724,2
3,139,8,180,0.8,6,1.0,comp,right,0.823239286277,2
3,140,8,180,0.8,6,-2.0,comp,right,0.74088630452,2
3,141,8,180,0.4,6,-2.0,comp,right,0.68209089031,2
3,142,8,0,0.4,6,0.5,comp,right,0.658568968422,2
3,143,8,180,0.4,6,0.0,comp,right,1.28185524564,2
3,144,8,180,0.4,6,1.5,comp,left,1.0113947305,2
3,145,8,0,0.8,6,-0.5,comp,left,0.999621696021,2
3,146,8,0,0.2,6,1.0,comp,right,0.588004352605,2
3,147,8,0,0.8,6,-1.5,comp,left,0.776177811298,2
3,148,8,180,0.4,6,-0.5,comp,left,0.752682719482,2
3,149,8,0,0.2,6,1.5,comp,right,0.729128984793,2
3,150,8,0,0.4,6,1.0,comp,right,0.705619711363,2
3,151,8,0,0.4,6,-2.0,comp,left,0.682106988352,2
3,152,8,180,0.4,6,1.0,comp,left,0.635058161846,2
3,153,8,180,0.2,6,-1.5,comp,right,0.670314406249,2
3,154,8,180,0.6,6,1.0,comp,left,1.05840714477,2
3,155,8,180,0.6,6,-2.0,comp,right,1.10547245261,2
3,156,8,180,0.8,6,0.5,comp,left,0.882025118313,2
3,157,8,0,0.0,6,-1.5,comp,left,0.717391595979,2
3,158,8,0,0.2,6,2.0,comp,right,1.56409607772,2
3,159,8,0,0.8,6,0.5,comp,left,0.89379431992,2
3,160,8,180,0.6,6,-1.5,comp,right,0.729092189271,2
3,161,8,180,0.8,6,0.0,comp,right,0.893771322721,2
3,162,8,0,0.2,6,-1.0,comp,left,0.658571651424,2
3,163,8,0,0.4,6,2.0,comp,right,0.635052412537,2
3,164,8,0,0.6,6,1.5,comp,right,0.670328204571,2
3,165,8,180,0.2,6,-1.0,comp,right,0.705634276259,2
3,166,8,0,0.8,6,-1.0,comp,left,0.693842077446,2
3,167,8,180,0.2,6,0.5,comp,left,0.799723880256,2
3,168,8,180,0.8,6,-1.5,comp,right,0.658567051985,2
3,169,8,180,0.0,6,-1.5,comp,right,0.776146381788,2
3,170,8,180,0.0,6,2.0,comp,left,0.917284812305,2
3,171,8,180,0.8,6,2.0,comp,left,0.682085907589,2
3,172,8,0,0.6,6,1.0,comp,left,0.705606679614,2
3,173,8,180,0.0,6,1.5,comp,left,0.70558713199,2
3,174,8,180,0.6,6,2.0,comp,left,0.870265498867,2
3,175,8,0,0.6,6,-2.0,comp,left,0.658621478695,2
3,176,8,180,0.0,6,-2.0,comp,right,0.599767421627,2
3,177,8,0,0.8,6,0.0,comp,right,0.917323140973,2
3,178,8,0,0.4,6,-1.5,comp,left,0.729128984793,2
3,179,8,0,0.6,6,-1.5,comp,left,0.68209089031,2
3,180,8,0,0.4,6,-0.5,comp,left,1.17600563892,2
3,181,8,180,0.4,6,-2.0,comp,right,0.68211197108,2
3,182,8,180,0.0,6,0.5,comp,left,0.764436206337,2
3,183,8,0,0.6,6,2.0,comp,right,0.599766271764,2
3,184,8,180,0.6,6,0.5,comp,left,0.705623927519,2
3,185,8,180,0.8,6,-0.5,comp,left,0.670701525829,2
3,186,8,0,0.8,6,1.0,comp,right,0.588002819452,2
3,187,8,0,0.2,6,-1.0,comp,right,0.62331732345,2
3,188,8,0,0.4,6,-0.5,comp,right,0.776172445294,2
3,189,8,180,0.6,6,1.5,comp,left,0.764373347316,2
3,190,8,0,0.8,6,2.0,comp,right,0.67034353604,2
3,191,8,0,0.0,6,0.0,comp,right,0.799708548788,2
3,192,8,0,0.4,6,0.5,comp,right,0.811428306413,2
3,193,8,180,0.2,6,-2.0,comp,right,0.940852345309,2
3,194,8,0,0.0,6,0.5,comp,right,0.611535473377,2
3,195,8,0,0.8,6,0.0,comp,right,0.693852809476,2
3,196,8,0,0.2,6,1.0,comp,right,0.59978888568,2
3,197,8,0,0.2,6,-1.5,comp,left,0.740861007595,2
3,198,8,0,0.2,6,1.5,comp,right,0.646828896599,2
3,199,8,0,0.4,6,-2.0,comp,left,0.646781752337,2
3,200,8,180,0.2,6,0.0,comp,left,0.670308273671,2
3,201,8,180,0.4,6,-0.5,comp,left,0.905559305378,2
3,202,8,180,0.4,6,-1.0,comp,right,0.717364765907,2
3,203,8,0,0.0,6,1.0,comp,right,0.658559386255,2
3,204,8,0,0.8,6,-1.5,comp,right,1.03489212204,2
3,205,8,0,0.4,6,1.5,comp,right,0.740900486126,2
3,206,8,0,0.8,6,1.5,comp,right,0.646818164576,2
3,207,8,0,0.6,6,0.5,comp,right,0.670332037444,2
3,208,8,0,0.6,6,1.0,comp,right,0.576221352676,2
3,209,8,0,0.4,6,-1.5,comp,left,0.905516377265,2
3,210,8,0,0.0,6,2.0,comp,right,0.682099705904,2
3,211,8,0,0.6,6,-1.5,comp,left,0.764390211931,2
3,212,8,0,0.4,6,-1.0,comp,right,0.881994838659,2
3,213,8,0,0.2,6,-0.5,comp,left,0.776194292637,2
3,214,8,180,0.0,6,0.0,comp,left,0.811456286348,2
3,215,8,180,0.2,6,0.5,comp,left,0.670336636882,2
3,216,8,180,0.6,6,-1.5,comp,right,0.599745191001,2
3,217,8,180,0.2,6,1.0,comp,left,0.623310041003,2
3,218,8,0,0.6,6,1.5,comp,right,0.729136650523,2
3,219,8,180,0.8,6,-1.0,comp,right,0.505673218184,2
3,220,8,180,0.8,6,2.0,comp,left,0.799691300883,2
3,221,8,0,0.0,6,-0.5,comp,right,0.740853725147,2
3,222,8,180,0.6,6,0.0,comp,left,0.576276545959,2
3,223,8,180,0.8,6,0.5,comp,left,0.870222570753,2
3,224,8,180,0.4,6,0.0,comp,left,0.858469850478,2
3,225,8,180,0.6,6,2.0,comp,left,0.623318090024,2
3,226,8,180,0.2,6,-0.5,comp,right,0.811457052921,2
3,227,8,180,0.0,6,-0.5,comp,left,0.85848518194,2
3,228,8,0,0.4,6,2.0,comp,right,0.635062377994,2
3,229,8,180,0.6,6,1.0,comp,left,0.717371665072,2
3,230,8,0,0.0,6,-2.0,comp,left,0.635048196382,2
3,231,8,180,0.8,6,-2.0,comp,left,1.11723973779,2
3,232,8,180,0.6,6,-0.5,comp,left,0.740918883886,2
3,233,8,0,0.6,6,0.0,comp,right,0.70558713199,2
3,234,8,0,0.0,6,-1.5,comp,left,0.987883540634,2
3,235,8,180,0.6,6,-2.0,comp,right,0.729151981992,2
3,236,8,180,0.8,6,0.0,comp,left,0.658619562266,2
3,237,8,180,0.4,6,-1.5,comp,right,0.62326519646,2
3,238,8,180,0.0,6,1.0,comp,right,0.976088658812,2
3,239,8,180,0.2,6,2.0,comp,left,0.623281677785,2
3,240,8,180,0.2,6,-1.0,comp,right,0.764418575141,2
3,241,8,180,0.2,6,1.5,comp,left,0.646819314432,2
3,242,8,180,0.0,6,1.5,comp,left,0.635069277152,2
3,243,8,180,0.0,6,-2.0,comp,right,0.682099322621,2
3,244,8,0,0.8,6,-0.5,comp,right,0.740908535146,2
3,245,8,0,0.0,6,1.5,comp,right,0.623305441564,2
3,246,8,180,0.0,6,2.0,comp,left,0.71734751801,2
3,247,8,0,0.2,6,2.0,comp,right,0.646810882121,2
3,248,8,0,0.2,6,0.5,comp,left,0.952566353633,2
3,249,8,0,0.2,6,-2.0,comp,right,0.65859733164,2
3,250,8,180,0.8,6,-1.5,comp,right,0.929067045661,2
3,251,8,0,0.4,6,0.0,comp,right,0.670329737724,2
3,252,8,180,0.6,6,-1.0,comp,right,0.846754309001,2
3,253,8,180,0.8,6,1.5,comp,left,0.787918266411,2
3,254,8,0,0.8,6,-2.0,comp,left,0.987868209166,2
3,255,8,0,0.0,6,-1.0,comp,right,0.529174442592,2
3,256,8,180,0.4,6,2.0,comp,left,0.729104454447,2
3,257,8,0,0.6,6,-1.0,comp,right,0.97609670784,2
3,258,8,0,0.8,6,-1.0,comp,left,1.37593296776,2
3,259,8,0,0.6,6,-2.0,comp,left,0.552725877562,2
3,260,8,180,0.4,6,1.5,comp,left,0.76441627543,2
3,261,8,180,0.0,6,-1.0,comp,left,0.776174361723,2
3,262,8,0,0.6,6,-0.5,comp,right,1.17601023836,2
3,263,8,0,0.8,6,0.5,comp,right,0.729105604303,2
3,264,8,180,0.2,6,-1.5,comp,right,1.01139511378,2
3,265,8,180,0.0,6,-1.5,comp,right,1.14077814101,2
3,266,8,180,0.8,6,1.0,comp,left,0.776146381788,2
3,267,8,0,0.4,6,1.0,comp,right,0.729132817658,2
3,268,8,0,0.2,6,0.0,comp,right,0.917276763284,2
3,269,8,180,0.4,6,0.5,comp,left,0.705593647865,2
3,270,8,180,0.4,6,1.0,comp,left,0.740928849336,2
4,1,8,180,0.4,6,-2.0,comp,right,0.729129751366,2
4,2,8,0,0.2,6,1.0,comp,right,0.776173595143,2
4,3,8,180,0.8,6,0.5,comp,left,0.599787352534,2
4,4,8,180,0.6,6,-1.0,comp,right,0.870283130054,2
4,5,8,180,0.4,6,0.0,comp,left,0.799692834029,2
4,6,8,180,0.6,6,0.0,comp,left,0.623288576942,2
4,7,8,180,0.8,6,1.0,comp,left,0.599737525263,2
4,8,8,0,0.4,6,-0.5,comp,right,0.670315172822,2
4,9,8,180,0.8,6,-0.5,comp,right,0.599779303513,2
4,10,8,180,0.6,6,0.5,comp,left,0.611553104565,2
4,11,8,180,0.4,6,0.5,comp,right,0.764429307172,2
4,12,8,0,0.0,6,0.0,comp,right,0.75265588941,2
4,13,8,0,0.0,6,-1.5,comp,left,0.788074264099,2
4,14,8,180,0.2,6,2.0,comp,left,0.56451194379,2
4,15,8,0,0.6,6,2.0,comp,right,0.63502519919,2
4,16,8,0,0.2,6,-2.0,comp,left,0.682072492549,2
4,17,8,180,0.4,6,-1.5,comp,right,0.823199041173,2
4,18,8,0,0.6,6,1.5,comp,right,0.787933597872,2
4,19,8,180,0.0,6,-1.0,comp,right,0.870227553482,2
4,20,8,180,0.2,6,-1.5,comp,right,0.882042366211,2
4,21,8,0,0.8,6,1.5,comp,right,1.14077737443,2
4,22,8,180,0.6,6,2.0,comp,left,0.682110437927,2
4,23,8,0,0.8,6,-1.0,comp,left,1.01137824917,2
4,24,8,0,0.0,6,1.5,comp,right,0.611564603169,2
4,25,8,0,0.2,6,0.0,comp,right,0.740890137386,2
4,26,8,0,0.2,6,1.5,comp,right,0.599774320792,2
4,27,8,180,0.2,6,0.0,comp,left,1.01138093218,2
4,28,8,0,0.8,6,-0.5,comp,right,0.764387912212,2
4,29,8,180,0.8,6,2.0,comp,left,0.646805516109,2
4,30,8,0,0.2,6,-1.0,comp,left,0.529209704975,2
4,31,8,180,0.2,6,-2.0,comp,right,0.717370515216,2
4,32,8,0,0.2,6,0.5,comp,right,0.646831579608,2
4,33,8,0,0.6,6,-1.0,comp,left,1.2230406671,2
4,34,8,0,0.6,6,-2.0,comp,left,0.670356951079,2
4,35,8,0,0.0,6,2.0,comp,right,0.623320006453,2
4,36,8,180,0.6,6,-1.5,comp,right,0.63506621086,2
4,37,8,0,0.6,6,0.5,comp,right,0.717324520803,2
4,38,8,180,0.0,6,0.5,comp,left,0.670292558905,2
4,39,8,0,0.6,6,-0.5,comp,left,0.611530107366,2
4,40,8,180,0.8,6,0.0,comp,left,0.599747107437,2
4,41,8,0,0.8,6,-2.0,comp,left,0.705610895769,2
4,42,8,180,0.2,6,-0.5,comp,right,0.740936515074,2
4,43,8,0,0.4,6,-1.0,comp,left,0.893802752231,2
4,44,8,0,0.4,6,0.0,comp,left,0.588002436176,2
4,45,8,180,0.8,6,-2.0,comp,right,0.729151215426,2
4,46,8,180,0.2,6,1.5,comp,left,0.764410142838,2
4,47,8,180,0.4,6,-0.5,comp,left,0.670305207372,2
4,48,8,0,0.4,6,2.0,comp,right,0.599767804917,2
4,49,8,180,0.4,6,2.0,comp,left,0.717331419961,2
4,50,8,180,0.2,6,0.5,comp,left,0.834952911311,2
4,51,8,0,0.4,6,-1.5,comp,left,0.70555340276,2
4,52,8,0,0.6,6,-1.5,comp,left,0.564473615123,2
4,53,8,0,0.0,6,-0.5,comp,left,0.799685551588,2
4,54,8,180,0.0,6,-1.5,comp,right,0.834965176487,2
4,55,8,0,0.4,6,0.5,comp,right,0.635024432617,2
4,56,8,0,0.4,6,1.0,comp,right,0.62328014463899994,2
4,57,8,0,0.6,6,0.0,comp,right,0.564509644071,2
4,58,8,0,0.6,6,1.0,comp,right,0.858516611457,2
4,59,8,180,0.6,6,1.5,comp,left,0.623292026532,2
4,60,8,0,0.8,6,-1.5,comp,right,0.799678652424,2
4,61,8,0,0.4,6,1.5,comp,right,0.564465182812,2
4,62,8,180,0.6,6,-2.0,comp,right,0.646784052049,2
4,63,8,0,0.8,6,2.0,comp,right,0.729133967521,2
4,64,8,180,0.8,6,1.5,comp,left,0.658565135549,2
4,65,8,0,0.0,6,0.5,comp,right,0.623273245474,2
4,66,8,180,0.4,6,1.5,comp,left,0.623099616598,2
4,67,8,180,0.0,6,1.0,comp,left,0.588004352605,2
4,68,8,0,0.0,6,1.0,comp,right,0.576226718687,2
4,69,8,180,0.0,6,-0.5,comp,right,0.964386532381,2
4,70,8,0,0.2,6,-0.5,comp,right,0.564517693092,2
4,71,8,180,0.8,6,-1.0,comp,right,0.835015003759,2
4,72,8,180,0.6,6,1.0,comp,right,0.717382780385,2
4,73,8,0,0.8,6,0.0,comp,left,0.670316322685,2
4,74,8,180,0.2,6,-1.0,comp,right,0.717372814928,2
4,75,8,180,0.6,6,-0.5,comp,left,0.717377414367,2
4,76,8,0,0.8,6,1.0,comp,right,0.705615111925,2
4,77,8,0,0.4,6,-2.0,comp,right,0.905534775025,2
4,78,8,180,0.8,6,-1.5,comp,right,0.717492400385,2
4,79,8,180,0.0,6,1.5,comp,left,0.623308124566,2
4,80,8,180,0.0,6,0.0,comp,left,0.917266031254,2
4,81,8,180,0.0,6,-2.0,comp,right,0.552718978404,2
4,82,8,0,0.2,6,2.0,comp,right,0.764407076545,2
4,83,8,0,0.2,6,-1.5,comp,left,0.552746191759,2
4,84,8,180,0.2,6,1.0,comp,left,0.635078859319,2
4,85,8,0,0.8,6,0.5,comp,left,0.552715912112,2
4,86,8,0,0.0,6,-1.0,comp,left,0.658540988486,2
4,87,8,180,0.0,6,2.0,comp,left,0.670335103729,2
4,88,8,180,0.4,6,1.0,comp,right,0.552723961126,2
4,89,8,0,0.0,6,-2.0,comp,left,0.611504043867,2
4,90,8,180,0.4,6,-1.0,comp,right,0.787929381724,2
4,91,8,180,0.4,6,-2.0,comp,right,0.799692834029,2
4,92,8,180,0.6,6,-1.5,comp,right,0.505688932943,2
4,93,8,180,0.6,6,-0.5,comp,right,0.635258237497,2
4,94,8,180,0.8,6,2.0,comp,left,0.682102772196,2
4,95,8,0,0.2,6,-2.0,comp,left,0.529176742319,2
4,96,8,180,0.4,6,1.0,comp,left,0.658566668702,2
4,97,8,180,0.8,6,1.5,comp,left,0.56448051428,2
4,98,8,180,0.2,6,0.5,comp,right,0.635086525064,2
4,99,8,0,0.2,6,0.0,comp,left,0.587985954837,2
4,100,8,180,0.2,6,2.0,comp,left,0.611501744148,2
4,101,8,180,0.4,6,-1.0,comp,right,0.623318856589,2
4,102,8,180,0.6,6,-1.0,comp,right,0.999599848677,2
4,103,8,0,0.2,6,-1.0,comp,left,0.682101622333,2
4,104,8,180,0.6,6,1.0,comp,left,0.646849210789,2
4,105,8,180,0.0,6,-1.0,comp,right,0.893778605168,2
4,106,8,0,0.6,6,0.0,comp,right,0.599741358128,2
4,107,8,180,0.2,6,1.5,comp,left,0.705578699686,2
4,108,8,180,0.8,6,-2.0,comp,right,0.646789418068,2
4,109,8,0,0.0,6,1.0,comp,right,0.599791951972,2
4,110,8,0,0.8,6,-2.0,comp,left,0.599742891281,2
4,111,8,180,0.4,6,0.0,comp,left,0.682054861361,2
4,112,8,180,0.0,6,-0.5,comp,left,0.670307123808,2
4,113,8,180,0.8,6,-0.5,comp,right,0.623262896741,2
4,114,8,0,0.6,6,-1.0,comp,left,0.670349285348,2
4,115,8,0,0.8,6,-1.5,comp,left,0.540988488749,2
4,116,8,0,0.0,6,-1.0,comp,left,0.787953145496,2
4,117,8,0,0.8,6,2.0,comp,right,0.705608979333,2
4,118,8,180,0.0,6,2.0,comp,left,0.811444404455,2
4,119,8,180,0.6,6,1.5,comp,left,0.670420193383,2
4,120,8,180,0.8,6,-1.5,comp,right,0.540940577914,2
4,121,8,0,0.2,6,2.0,comp,right,0.623289343515,2
4,122,8,0,0.6,6,-2.0,comp,left,0.611556554148,2
4,123,8,180,0.2,6,-0.5,comp,left,0.611547738547,2
4,124,8,0,0.4,6,-2.0,comp,left,0.599743657847,2
4,125,8,0,0.4,6,2.0,comp,left,0.787932448016,2
4,126,8,180,0.0,6,-2.0,comp,right,0.740923100035,2
4,127,8,180,0.4,6,-1.5,comp,right,0.740888604239,2
4,128,8,0,0.6,6,0.5,comp,right,0.611503660584,2
4,129,8,180,0.0,6,1.0,comp,left,0.587993237292,2
4,130,8,180,0.4,6,-0.5,comp,left,0.611498677848,2
4,131,8,0,0.2,6,1.0,comp,right,0.50568586665,2
4,132,8,180,0.4,6,1.5,comp,left,0.670365000093,2
4,133,8,180,0.8,6,-1.0,comp,right,0.717391595979,2
4,134,8,0,0.6,6,-0.5,comp,right,0.611511709598,2
4,135,8,0,0.4,6,1.5,comp,right,1.23482290046,2
4,136,8,180,0.6,6,0.5,comp,left,0.870369369564,2
4,137,8,0,0.8,6,-0.5,comp,right,0.717359399896,2
4,138,8,0,0.4,6,-0.5,comp,right,0.823202490748,2
4,139,8,0,0.2,6,1.5,comp,right,0.588013934772,2
4,140,8,0,0.4,6,-1.0,comp,right,0.799675969422,2
4,141,8,180,0.8,6,1.0,comp,left,0.68210162234,2
4,142,8,180,0.8,6,0.5,comp,left,0.705660723041,2
4,143,8,0,0.0,6,-1.5,comp,left,0.611524358057,2
4,144,8,0,0.0,6,-0.5,comp,right,1.08193059981,2
4,145,8,180,0.6,6,0.0,comp,right,0.870240968514,2
4,146,8,0,0.4,6,-1.5,comp,right,0.893790870345,2
4,147,8,180,0.2,6,0.0,comp,left,0.611529724076,2
4,148,8,0,0.8,6,1.5,comp,right,0.740876722346,2
4,149,8,180,0.2,6,1.0,comp,left,0.635013700587,2
4,150,8,0,0.8,6,0.0,comp,right,0.68210123905,2
4,151,8,180,0.6,6,-2.0,comp,right,0.799718130955,2
4,152,8,0,0.2,6,0.5,comp,right,0.64680321639,2
4,153,8,180,0.2,6,-2.0,comp,left,0.658557469811,2
4,154,8,180,0.4,6,0.5,comp,right,0.56448319729,2
4,155,8,0,0.0,6,-2.0,comp,right,0.929034849578,2
4,156,8,0,0.4,6,0.5,comp,right,0.940900639434,2
4,157,8,0,0.8,6,0.5,comp,right,0.599763972044,2
4,158,8,180,0.0,6,0.0,comp,left,0.623291259952,2
4,159,8,0,0.2,6,-0.5,comp,left,0.870232152927,2
4,160,8,0,0.4,6,0.0,comp,left,0.693857408914,2
4,161,8,180,0.0,6,0.5,comp,left,0.870246717823,2
4,162,8,0,0.2,6,-1.5,comp,right,0.517481898329,2
4,163,8,0,0.0,6,1.5,comp,right,0.576512267282,2
4,164,8,0,0.6,6,2.0,comp,right,0.71733371968,2
4,165,8,0,0.6,6,1.0,comp,right,0.59980766673100006,2
4,166,8,0,0.6,6,-1.5,comp,right,1.09370746715,2
4,167,8,180,0.6,6,2.0,comp,left,0.693841694156,2
4,168,8,0,0.0,6,0.0,comp,left,0.599779303513,2
4,169,8,0,0.8,6,1.0,comp,right,0.752646690526,2
4,170,8,180,0.2,6,-1.0,comp,left,0.79969053431,2
4,171,8,0,0.4,6,1.0,comp,right,0.717395045554,2
4,172,8,180,0.2,6,-1.5,comp,left,0.564481664143,2
4,173,8,0,0.8,6,-1.0,comp,right,0.717245947031,2
4,174,8,0,0.6,6,1.5,comp,right,0.599806516875,2
4,175,8,0,0.0,6,2.0,comp,right,0.729096405426,2
4,176,8,180,0.4,6,2.0,comp,left,0.670294858632,2
